File: data-release/xrd_measurements/NaiLiI/F_of_Q.csv
,Q,F,dF
0,1.01,10.4355,1e-7
1,1.02,11.507,1e-7
2,1.03,11.3902,1e-7
3,1.04,10.1242,1e-7
4,1.05,7.85375,1e-7
5,1.06,4.81289,1e-7
6,1.07,1.30141,1e-7
7,1.08,-2.34445,1e-7
8,1.09,-5.78367,1e-7
9,1.1,-8.70173,0.0001
10,1.11,-10.8388,0.0001
11,1.12,-12.0123,0.0001
12,1.13,-12.1317,0.0001
13,1.14,-11.205,0.0001
14,1.15,-9.33574,0.0001
15,1.16,-6.71168,0.0001
16,1.17,-3.58589,0.0001
17,1.18,-0.25244,0.0001
18,1.19,2.98125,0.0001
19,1.2,5.82262,0.0001
20,1.21,8.02035,0.0001
21,1.22,9.38647,0.0001
22,1.23,9.81227,0.0001
23,1.24,9.27681,0.0001
24,1.25,7.84716,0.0001
25,1.26,5.67083,0.0001
26,1.27,2.96084,0.0001
27,1.28,-0.0248025,0.0001
28,1.29,-3.00735,0.0001
29,1.3,-5.71317,0.0001
30,1.31,-7.89857,0.0001
31,1.32,-9.37162,0.0001
32,1.33,-10.0089,0.0001
33,1.34,-9.76568,0.0001
34,1.35,-8.67885,0.0001
35,1.36,-6.86235,0.0001
36,1.37,-4.49557,0.0001
37,1.38,-1.80598,0.0001
38,1.39,0.952427,0.0001
39,1.4,3.52288,0.0001
40,1.41,5.6695,0.0001
41,1.42,7.19874,0.0001
42,1.43,7.97681,0.0001
43,1.44,7.94127,0.0001
44,1.45,7.10598,0.0001
45,1.46,5.55903,0.0001
46,1.47,3.45373,0.0001
47,1.48,0.993656,0.0001
48,1.49,-1.58676,0.0001
49,1.5,-4.04448,0.0001
50,1.51,-6.15069,0.0001
51,1.52,-7.71222,0.0001
52,1.53,-8.5895,0.0001
53,1.54,-8.70951,0.0001
54,1.55,-8.07236,0.0001
55,1.56,-6.75113,0.0001
56,1.57,-4.88477,0.0001
57,1.58,-2.66478,0.0001
58,1.59,-0.317027,0.0001
59,1.6,1.91991,0.0001
60,1.61,3.81759,0.0001
61,1.62,5.17984,0.0001
62,1.63,5.86198,0.0001
63,1.64,5.78547,0.0001
64,1.65,4.94643,0.0001
65,1.66,3.4173,0.0001
66,1.67,1.34128,0.0001
67,1.68,-1.07989,0.0001
68,1.69,-3.60388,0.0001
69,1.7,-5.96999,0.0001
70,1.71,-7.92342,0.0001
71,1.72,-9.23973,0.0001
72,1.73,-9.747,0.0001
73,1.74,-9.34388,0.0001
74,1.75,-8.01162,0.0001
75,1.76,-5.81896,0.0001
76,1.77,-2.91933,0.0001
77,1.78,0.459729,0.0001
78,1.79,4.034,0.0001
79,1.8,7.48566,0.0001
80,1.81,10.4901,0.0001
81,1.82,12.7439,0.0001
82,1.83,13.9928,0.0001
83,1.84,14.0548,0.0001
84,1.85,12.8398,0.0001
85,1.86,10.3604,0.0001
86,1.87,6.73545,0.0001
87,1.88,2.18475,0.0001
88,1.89,-2.98515,0.0001
89,1.9,-8.40227,0.0001
90,1.91,-13.6565,0.0001
91,1.92,-18.3308,0.0001
92,1.93,-22.0339,0.0001
93,1.94,-24.4311,0.0001
94,1.95,-25.2722,0.0001
95,1.96,-24.4128,0.0001
96,1.97,-21.8281,0.0001
97,1.98,-17.6172,0.0001
98,1.99,-11.9988,0.0001
99,2,-5.29675,0.0001
100,2.01,2.08192,0.0001
101,2.02,9.67571,0.0001
102,2.03,17.0017,0.0001
103,2.04,23.5903,0.0001
104,2.05,29.0193,0.0001
105,2.06,32.944,0.0001
106,2.07,35.1222,0.0001
107,2.08,35.4307,0.0001
108,2.09,33.8734,0.0001
109,2.1,30.5797,0.0001
110,2.11,25.7937,0.0001
111,2.12,19.8545,0.0001
112,2.13,13.1707,0.0001
113,2.14,6.18913,0.0001
114,2.15,-0.638085,0.0001
115,2.16,-6.88635,0.0001
116,2.17,-12.1886,0.0001
117,2.18,-16.2602,0.0001
118,2.19,-18.9169,0.0001
119,2.2,-20.0848,0.0001
120,2.21,-19.8014,0.0001
121,2.22,-18.208,0.0001
122,2.23,-15.5345,0.0001
123,2.24,-12.0776,0.0001
124,2.25,-8.17509,0.0001
125,2.26,-4.17678,0.0001
126,2.27,-0.416616,0.0001
127,2.28,2.81339,0.0001
128,2.29,5.28472,0.0001
129,2.3,6.84789,0.0001
130,2.31,7.44081,0.0001
131,2.32,7.08959,0.0001
132,2.33,5.90194,0.0001
133,2.34,4.05388,0.0001
134,2.35,1.77115,0.0001
135,2.36,-0.692951,0.0001
136,2.37,-3.08131,0.0001
137,2.38,-5.15627,0.0001
138,2.39,-6.72042,0.0001
139,2.4,-7.63308,0.0001
140,2.41,-7.82131,0.0001
141,2.42,-7.28448,0.0001
142,2.43,-6.09224,0.0001
143,2.44,-4.37615,0.0001
144,2.45,-2.31587,0.0001
145,2.46,-0.121281,0.0001
146,2.47,1.98787,0.0001
147,2.48,3.80284,0.0001
148,2.49,5.14551,0.0001
149,2.5,5.88485,0.0001
150,2.51,5.94896,0.0001
151,2.52,5.33145,0.0001
152,2.53,4.09182,0.0001
153,2.54,2.34965,0.0001
154,2.55,0.273351,0.0001
155,2.56,-1.9357,0.0001
156,2.57,-4.06202,0.0001
157,2.58,-5.89626,0.0001
158,2.59,-7.25502,0.0001
159,2.6,-7.99839,0.0001
160,2.61,-8.04367,0.0001
161,2.62,-7.37405,0.0001
162,2.63,-6.04129,0.0001
163,2.64,-4.16234,0.0001
164,2.65,-1.90991,0.0001
165,2.66,0.502134,0.0001
166,2.67,2.83728,0.0001
167,2.68,4.85736,0.0001
168,2.69,6.34405,0.0001
169,2.7,7.11917,0.0001
170,2.71,7.06194,0.0001
171,2.72,6.12164,0.0001
172,2.73,4.32454,0.0001
173,2.74,1.77448,0.0001
174,2.75,-1.35317,0.0001
175,2.76,-4.82371,0.0001
176,2.77,-8.36051,0.0001
177,2.78,-11.6664,0.0001
178,2.79,-14.4471,0.0001
179,2.8,-16.4352,0.0001
180,2.81,-17.4123,0.0001
181,2.82,-17.2275,0.0001
182,2.83,-15.8118,0.0001
183,2.84,-13.1851,0.0001
184,2.85,-9.45718,0.0001
185,2.86,-4.82171,0.0001
186,2.87,0.456673,0.0001
187,2.88,6.06056,0.0001
188,2.89,11.6422,0.0001
189,2.9,16.8485,0.0001
190,2.91,21.3465,0.0001
191,2.92,24.8473,0.0001
192,2.93,27.1271,0.0001
193,2.94,28.0429,0.0001
194,2.95,27.5429,0.0001
195,2.96,25.669,0.0001
196,2.97,22.5537,0.0001
197,2.98,18.4093,0.0001
198,2.99,13.5119,0.0001
199,3,8.18083,0.0001
200,3.01,2.75514,0.0001
201,3.02,-2.43066,0.0001
202,3.03,-7.07032,0.0001
203,3.04,-10.9067,0.0001
204,3.05,-13.7488,0.0001
205,3.06,-15.4827,0.0001
206,3.07,-16.0775,0.0001
207,3.08,-15.5837,0.0001
208,3.09,-14.1267,0.0001
209,3.1,-11.8937,0.0001
210,3.11,-9.11724,0.0001
211,3.12,-6.05537,0.0001
212,3.13,-2.97095,0.0001
213,3.14,-0.111093,0.0001
214,3.15,2.31115,0.0001
215,3.16,4.13177,0.0001
216,3.17,5.2463,0.0001
217,3.18,5.61508,0.0001
218,3.19,5.2631,0.0001
219,3.2,4.27473,0.0001
220,3.21,2.78368,0.0001
221,3.22,0.959453,0.0001
222,3.23,-1.00866,0.0001
223,3.24,-2.9286,0.0001
224,3.25,-4.62205,0.0001
225,3.26,-5.93924,0.0001
226,3.27,-6.77071,0.0001
227,3.28,-7.05525,0.0001
228,3.29,-6.78344,0.0001
229,3.3,-5.99661,0.0001
230,3.31,-4.78147,0.0001
231,3.32,-3.26101,0.0001
232,3.33,-1.58245,0.0001
233,3.34,0.0964481,0.0001
234,3.35,1.62179,0.0001
235,3.36,2.85711,0.0001
236,3.37,3.69521,0.0001
237,3.38,4.06713,0.0001
238,3.39,3.94766,0.0001
239,3.4,3.35692,0.0001
240,3.41,2.358,0.0001
241,3.42,1.0509,0.0001
242,3.43,-0.436546,0.0001
243,3.44,-1.9601,0.0001
244,3.45,-3.37169,0.0001
245,3.46,-4.53224,0.0001
246,3.47,-5.32348,0.0001
247,3.48,-5.65791,0.0001
248,3.49,-5.48602,0.0001
249,3.5,-4.8003,0.0001
250,3.51,-3.63562,0.0001
251,3.52,-2.06618,0.0001
252,3.53,-0.199257,0.0001
253,3.54,1.8337,0.0001
254,3.55,3.88774,0.0001
255,3.56,5.81604,0.0001
256,3.57,7.48144,0.0001
257,3.58,8.767,0.0001
258,3.59,9.58466,0.0001
259,3.6,9.8815,0.0001
260,3.61,9.64297,0.0001
261,3.62,8.89299,0.0001
262,3.63,7.69114,0.0001
263,3.64,6.12694,0.0001
264,3.65,4.31215,0.0001
265,3.66,2.37143,0.0001
266,3.67,0.432533,0.0001
267,3.68,-1.38354,0.0001
268,3.69,-2.97127,0.0001
269,3.7,-4.24781,0.0001
270,3.71,-5.15796,0.0001
271,3.72,-5.67676,0.0001
272,3.73,-5.80943,0.0001
273,3.74,-5.58895,0.0001
274,3.75,-5.07152,0.0001
275,3.76,-4.33036,0.0001
276,3.77,-3.44855,0.0001
277,3.78,-2.5115,0.0001
278,3.79,-1.59979,0.0001
279,3.8,-0.782855,0.0001
280,3.81,-0.114207,0.0001
281,3.82,0.371676,0.0001
282,3.83,0.66047,0.0001
283,3.84,0.757231,0.0001
284,3.85,0.683886,0.0001
285,3.86,0.475351,0.0001
286,3.87,0.174718,0.0001
287,3.88,-0.171966,0.0001
288,3.89,-0.520779,0.0001
289,3.9,-0.834382,0.0001
290,3.91,-1.08543,0.0001
291,3.92,-1.25861,0.0001
292,3.93,-1.35126,0.0001
293,3.94,-1.37241,0.0001
294,3.95,-1.34053,0.0001
295,3.96,-1.28031,0.0001
296,3.97,-1.21865,0.0001
297,3.98,-1.18062,0.0001
298,3.99,-1.18558,0.0001
299,4,-1.24408,0.0001
300,4.01,-1.35582,0.0001
301,4.02,-1.50888,0.0001
302,4.03,-1.68045,0.0001
303,4.04,-1.83889,0.0001
304,4.05,-1.94702,0.0001
305,4.06,-1.96627,0.0001
306,4.07,-1.86128,0.0001
307,4.08,-1.60452,0.0001
308,4.09,-1.18042,0.0001
309,4.1,-0.588479,0.0001
310,4.11,0.154894,0.0001
311,4.12,1.01614,0.0001
312,4.13,1.94602,0.0001
313,4.14,2.88273,0.0001
314,4.15,3.75648,0.0001
315,4.16,4.49506,0.0001
316,4.17,5.03016,0.0001
317,4.18,5.30363,0.0001
318,4.19,5.27327,0.0001
319,4.2,4.91761,0.0001
320,4.21,4.239,0.0001
321,4.22,3.26494,0.0001
322,4.23,2.04728,0.0001
323,4.24,0.659189,0.0001
324,4.25,-0.809658,0.0001
325,4.26,-2.25966,0.0001
326,4.27,-3.58889,0.0001
327,4.28,-4.70127,0.0001
328,4.29,-5.51454,0.0001
329,4.3,-5.96736,0.0001
330,4.31,-6.02504,0.0001
331,4.32,-5.68315,0.0001
332,4.33,-4.96881,0.0001
333,4.34,-3.93948,0.0001
334,4.35,-2.67909,0.0001
335,4.36,-1.29203,0.0001
336,4.37,0.104809,0.0001
337,4.38,1.39122,0.0001
338,4.39,2.45342,0.0001
339,4.4,3.19349,0.0001
340,4.41,3.53788,0.0001
341,4.42,3.44411,0.0001
342,4.43,2.90516,0.0001
343,4.44,1.95121,0.0001
344,4.45,0.648268,0.0001
345,4.46,-0.905882,0.0001
346,4.47,-2.58854,0.0001
347,4.48,-4.26101,0.0001
348,4.49,-5.77902,0.0001
349,4.5,-7.00387,0.0001
350,4.51,-7.81337,0.0001
351,4.52,-8.11179,0.0001
352,4.53,-7.83793,0.0001
353,4.54,-6.9708,0.0001
354,4.55,-5.53226,0.0001
355,4.56,-3.5865,0.0001
356,4.57,-1.23632,0.0001
357,4.58,1.3836,0.0001
358,4.59,4.11584,0.0001
359,4.6,6.79125,0.0001
360,4.61,9.24091,0.0001
361,4.62,11.3082,0.0001
362,4.63,12.86,0.0001
363,4.64,13.7964,0.0001
364,4.65,14.0577,0.0001
365,4.66,13.6286,0.0001
366,4.67,12.5395,0.0001
367,4.68,10.8638,0.0001
368,4.69,8.71254,0.0001
369,4.7,6.2263,0.0001
370,4.71,3.56475,0.0001
371,4.72,0.895107,0.0001
372,4.73,-1.61983,0.0001
373,4.74,-3.83324,0.0001
374,4.75,-5.62448,0.0001
375,4.76,-6.9071,0.0001
376,4.77,-7.63427,0.0001
377,4.78,-7.80107,0.0001
378,4.79,-7.44366,0.0001
379,4.8,-6.63527,0.0001
380,4.81,-5.47958,0.0001
381,4.82,-4.10177,0.0001
382,4.83,-2.63821,0.0001
383,4.84,-1.22548,0.0001
384,4.85,0.0104364,0.0001
385,4.86,0.963881,0.0001
386,4.87,1.55752,0.0001
387,4.88,1.74791,0.0001
388,4.89,1.52837,0.0001
389,4.9,0.928875,0.0001
390,4.91,0.0130185,0.0001
391,4.92,-1.12757,0.0001
392,4.93,-2.38098,0.0001
393,4.94,-3.62434,0.0001
394,4.95,-4.73381,0.0001
395,4.96,-5.5946,0.0001
396,4.97,-6.11026,0.0001
397,4.98,-6.2103,0.0001
398,4.99,-5.85595,0.0001
399,5,-5.04323,0.0001
400,5.01,-3.80344,0.0001
401,5.02,-2.20095,0.0001
402,5.03,-0.328456,0.0001
403,5.04,1.69987,0.0001
404,5.05,3.75674,0.0001
405,5.06,5.711,0.0001
406,5.07,7.43717,0.0001
407,5.08,8.82431,0.0001
408,5.09,9.78385,0.0001
409,5.1,10.2555,0.0001
410,5.11,10.2114,0.0001
411,5.12,9.65731,0.0001
412,5.13,8.63169,0.0001
413,5.14,7.20264,0.0001
414,5.15,5.46242,0.0001
415,5.16,3.52065,0.0001
416,5.17,1.49636,0.0001
417,5.18,-0.490296,0.0001
418,5.19,-2.32623,0.0001
419,5.2,-3.91276,0.0001
420,5.21,-5.17168,0.0001
421,5.22,-6.04965,0.0001
422,5.23,-6.52067,0.0001
423,5.24,-6.58651,0.0001
424,5.25,-6.27509,0.0001
425,5.26,-5.63719,0.0001
426,5.27,-4.74162,0.0001
427,5.28,-3.66939,0.0001
428,5.29,-2.50728,0.0001
429,5.3,-1.34143,0.0001
430,5.31,-0.251288,0.0001
431,5.32,0.695584,0.0001
432,5.33,1.44748,0.0001
433,5.34,1.97112,0.0001
434,5.35,2.2527,0.0001
435,5.36,2.29739,0.0001
436,5.37,2.12749,0.0001
437,5.38,1.77933,0.0001
438,5.39,1.29943,0.0001
439,5.4,0.74007,0.0001
440,5.41,0.154773,0.0001
441,5.42,-0.405987,0.0001
442,5.43,-0.898511,0.0001
443,5.44,-1.28879,0.0001
444,5.45,-1.55444,0.0001
445,5.46,-1.68549,0.0001
446,5.47,-1.68422,0.0001
447,5.48,-1.56389,0.0001
448,5.49,-1.34673,0.0001
449,5.5,-1.06134,0.0001
450,5.51,-0.739706,0.0001
451,5.52,-0.414231,0.0001
452,5.53,-0.114904,0.0001
453,5.54,0.133082,0.0001
454,5.55,0.311127,0.0001
455,5.56,0.408306,0.0001
456,5.57,0.421709,0.0001
457,5.58,0.356047,0.0001
458,5.59,0.222619,0.0001
459,5.6,0.0377745,0.0001
460,5.61,-0.17896,0.0001
461,5.62,-0.406893,0.0001
462,5.63,-0.626129,0.0001
463,5.64,-0.819308,0.0001
464,5.65,-0.972966,0.0001
465,5.66,-1.07843,0.0001
466,5.67,-1.13217,0.0001
467,5.68,-1.13567,0.0001
468,5.69,-1.09474,0.0001
469,5.7,-1.01851,0.0001
470,5.71,-0.918177,0.0001
471,5.72,-0.80551,0.0001
472,5.73,-0.691533,0.0001
473,5.74,-0.585278,0.0001
474,5.75,-0.492854,0.0001
475,5.76,-0.416885,0.0001
476,5.77,-0.356364,0.0001
477,5.78,-0.306927,0.0001
478,5.79,-0.261526,0.0001
479,5.8,-0.211397,0.0001
480,5.81,-0.147256,0.0001
481,5.82,-0.0605689,0.0001
482,5.83,0.0552087,0.0001
483,5.84,0.203568,0.0001
484,5.85,0.384152,0.0001
485,5.86,0.592331,0.0001
486,5.87,0.819174,0.0001
487,5.88,1.05186,0.0001
488,5.89,1.27446,0.0001
489,5.9,1.4691,0.0001
490,5.91,1.61735,0.0001
491,5.92,1.70168,0.0001
492,5.93,1.70706,0.0001
493,5.94,1.62234,0.0001
494,5.95,1.44136,0.0001
495,5.96,1.16385,0.0001
496,5.97,0.795803,0.0001
497,5.98,0.349461,0.0001
498,5.99,-0.157193,0.0001
499,6,-0.701336,0.0001
500,6.01,-1.25657,0.0001
501,6.02,-1.79449,0.0001
502,6.03,-2.28632,0.0001
503,6.04,-2.70475,0.0001
504,6.05,-3.0255,0.0001
505,6.06,-3.22886,0.0001
506,6.07,-3.3008,0.0001
507,6.08,-3.23383,0.0001
508,6.09,-3.0274,0.0001
509,6.1,-2.68786,0.0001
510,6.11,-2.22805,0.0001
511,6.12,-1.66649,0.0001
512,6.13,-1.02632,0.0001
513,6.14,-0.333946,0.0001
514,6.15,0.382347,0.0001
515,6.16,1.0939,0.0001
516,6.17,1.77307,0.0001
517,6.18,2.39448,0.0001
518,6.19,2.9361,0.0001
519,6.2,3.38003,0.0001
520,6.21,3.71304,0.0001
521,6.22,3.92682,0.0001
522,6.23,4.01797,0.0001
523,6.24,3.9877,0.0001
524,6.25,3.84149,0.0001
525,6.26,3.5884,0.0001
526,6.27,3.24049,0.0001
527,6.28,2.81207,0.0001
528,6.29,2.31904,0.0001
529,6.3,1.77822,0.0001
530,6.31,1.20679,0.0001
531,6.32,0.621796,0.0001
532,6.33,0.0397615,0.0001
533,6.34,-0.523646,0.0001
534,6.35,-1.05385,0.0001
535,6.36,-1.53757,0.0001
536,6.37,-1.96295,0.0001
537,6.38,-2.31976,0.0001
538,6.39,-2.59947,0.0001
539,6.4,-2.79544,0.0001
540,6.41,-2.90304,0.0001
541,6.42,-2.91982,0.0001
542,6.43,-2.84565,0.0001
543,6.44,-2.68281,0.0001
544,6.45,-2.43612,0.0001
545,6.46,-2.11288,0.0001
546,6.47,-1.72285,0.0001
547,6.48,-1.27809,0.0001
548,6.49,-0.792662,0.0001
549,6.5,-0.282302,0.0001
550,6.51,0.236068,0.0001
551,6.52,0.744877,0.0001
552,6.53,1.22652,0.0001
553,6.54,1.664,0.0001
554,6.55,2.04161,0.0001
555,6.56,2.34554,0.0001
556,6.57,2.5645,0.0001
557,6.58,2.69018,0.0001
558,6.59,2.71769,0.0001
559,6.6,2.64577,0.0001
560,6.61,2.47695,0.0001
561,6.62,2.2175,0.0001
562,6.63,1.87724,0.0001
563,6.64,1.46918,0.0001
564,6.65,1.00909,0.0001
565,6.66,0.51486,0.0001
566,6.67,0.00585374,0.0001
567,6.68,-0.497875,0.0001
568,6.69,-0.976362,0.0001
569,6.7,-1.41053,0.0001
570,6.71,-1.78299,0.0001
571,6.72,-2.07872,0.0001
572,6.73,-2.28576,0.0001
573,6.74,-2.39567,0.0001
574,6.75,-2.404,0.0001
575,6.76,-2.31046,0.0001
576,6.77,-2.11903,0.0001
577,6.78,-1.83784,0.0001
578,6.79,-1.47885,0.0001
579,6.8,-1.05742,0.0001
580,6.81,-0.591698,0.0001
581,6.82,-0.101793,0.0001
582,6.83,0.391043,0.0001
583,6.84,0.86538,0.0001
584,6.85,1.30059,0.0001
585,6.86,1.67781,0.0001
586,6.87,1.98082,0.0001
587,6.88,2.19686,0.0001
588,6.89,2.31722,0.0001
589,6.9,2.33773,0.0001
590,6.91,2.25888,0.0001
591,6.92,2.08589,0.0001
592,6.93,1.82837,0.0001
593,6.94,1.49981,0.0001
594,6.95,1.11691,0.0001
595,6.96,0.698622,0.0001
596,6.97,0.265173,0.0001
597,6.98,-0.163029,0.0001
598,6.99,-0.56648,0.0001
599,7,-0.927593,0.0001
600,7.01,-1.2316,0.0001
601,7.02,-1.46727,0.0001
602,7.03,-1.62738,0.0001
603,7.04,-1.709,0.0001
604,7.05,-1.71343,0.0001
605,7.06,-1.64594,0.0001
606,7.07,-1.51531,0.0001
607,7.08,-1.33304,0.0001
608,7.09,-1.11261,0.0001
609,7.1,-0.868505,0.0001
610,7.11,-0.615294,0.0001
611,7.12,-0.366771,0.0001
612,7.13,-0.135176,0.0001
613,7.14,0.069405,0.0001
614,7.15,0.239456,0.0001
615,7.16,0.370221,0.0001
616,7.17,0.459689,0.0001
617,7.18,0.508376,0.0001
618,7.19,0.518943,0.0001
619,7.2,0.495691,0.0001
620,7.21,0.443993,0.0001
621,7.22,0.369708,0.0001
622,7.23,0.278648,0.0001
623,7.24,0.176133,0.0001
624,7.25,0.0666798,0.0001
625,7.26,-0.0461587,0.0001
626,7.27,-0.15979,0.0001
627,7.28,-0.272431,0.0001
628,7.29,-0.382838,0.0001
629,7.3,-0.489947,0.0001
630,7.31,-0.592491,0.0001
631,7.32,-0.688635,0.0001
632,7.33,-0.775689,0.0001
633,7.34,-0.849945,0.0001
634,7.35,-0.90667,0.0001
635,7.36,-0.940278,0.0001
636,7.37,-0.944686,0.0001
637,7.38,-0.913823,0.0001
638,7.39,-0.842264,0.0001
639,7.4,-0.725933,0.0001
640,7.41,-0.562807,0.0001
641,7.42,-0.353551,0.0001
642,7.43,-0.102004,0.0001
643,7.44,0.184535,0.0001
644,7.45,0.495292,0.0001
645,7.46,0.816287,0.0001
646,7.47,1.13091,0.0001
647,7.48,1.42079,0.0001
648,7.49,1.66688,0.0001
649,7.5,1.85076,0.0001
650,7.51,1.95597,0.0001
651,7.52,1.96939,0.0001
652,7.53,1.88244,0.0001
653,7.54,1.69207,0.0001
654,7.55,1.40147,0.0001
655,7.56,1.0203,0.0001
656,7.57,0.56455,0.0001
657,7.58,0.0559063,0.0001
658,7.59,-0.479332,0.0001
659,7.6,-1.0117,0.0001
660,7.61,-1.51034,0.0001
661,7.62,-1.94493,0.0001
662,7.63,-2.2877,0.0001
663,7.64,-2.51535,0.0001
664,7.65,-2.61072,0.0001
665,7.66,-2.56415,0.0001
666,7.67,-2.37432,0.0001
667,7.68,-2.04858,0.0001
668,7.69,-1.60273,0.0001
669,7.7,-1.06012,0.0001
670,7.71,-0.450379,0.0001
671,7.72,0.19249,0.0001
672,7.73,0.832182,0.0001
673,7.74,1.43243,0.0001
674,7.75,1.95937,0.0001
675,7.76,2.38369,0.0001
676,7.77,2.68257,0.0001
677,7.78,2.84116,0.0001
678,7.79,2.85344,0.0001
679,7.8,2.72262,0.0001
680,7.81,2.46078,0.0001
681,7.82,2.08794,0.0001
682,7.83,1.63065,0.0001
683,7.84,1.12007,0.0001
684,7.85,0.589793,0.0001
685,7.86,0.0735141,0.0001
686,7.87,-0.397243,0.0001
687,7.88,-0.79523,0.0001
688,7.89,-1.09922,0.0001
689,7.9,-1.29529,0.0001
690,7.91,-1.37757,0.0001
691,7.92,-1.34837,0.0001
692,7.93,-1.21775,0.0001
693,7.94,-1.00249,0.0001
694,7.95,-0.724676,0.0001
695,7.96,-0.409892,0.0001
696,7.97,-0.0852133,0.0001
697,7.98,0.222827,0.0001
698,7.99,0.490172,0.0001
699,8,0.696921,0.0001
700,8.01,0.82865,0.0001
701,8.02,0.877262,0.0001
702,8.03,0.84134,0.0001
703,8.04,0.725976,0.0001
704,8.05,0.542112,0.0001
705,8.06,0.30547,0.0001
706,8.07,0.0351484,0.0001
707,8.08,-0.247978,0.0001
708,8.09,-0.522927,0.0001
709,8.1,-0.770217,0.0001
710,8.11,-0.973287,0.0001
711,8.12,-1.11963,0.0001
712,8.13,-1.20155,0.0001
713,8.14,-1.21652,0.0001
714,8.15,-1.1671,0.0001
715,8.16,-1.06048,0.0001
716,8.17,-0.907656,0.0001
717,8.18,-0.722372,0.0001
718,8.19,-0.519889,0.0001
719,8.2,-0.315703,0.0001
720,8.21,-0.124326,0.0001
721,8.22,0.0417823,0.0001
722,8.23,0.173041,0.0001
723,8.24,0.263291,0.0001
724,8.25,0.310005,0.0001
725,8.26,0.314187,0.0001
726,8.27,0.279977,0.0001
727,8.28,0.214013,0.0001
728,8.29,0.124631,0.0001
729,8.3,0.020985,0.0001
730,8.31,-0.0878376,0.0001
731,8.32,-0.193605,0.0001
732,8.33,-0.289578,0.0001
733,8.34,-0.370938,0.0001
734,8.35,-0.434975,0.0001
735,8.36,-0.481034,0.0001
736,8.37,-0.510242,0.0001
737,8.38,-0.525051,0.0001
738,8.39,-0.528662,0.0001
739,8.4,-0.524396,0.0001
740,8.41,-0.515094,0.0001
741,8.42,-0.502607,0.0001
742,8.43,-0.487435,0.0001
743,8.44,-0.468575,0.0001
744,8.45,-0.443576,0.0001
745,8.46,-0.408817,0.0001
746,8.47,-0.359974,0.0001
747,8.48,-0.292629,0.0001
748,8.49,-0.202966,0.0001
749,8.5,-0.0884686,0.0001
750,8.51,0.0514578,0.0001
751,8.52,0.215002,0.0001
752,8.53,0.39768,0.0001
753,8.54,0.592319,0.0001
754,8.55,0.789316,0.0001
755,8.56,0.977175,0.0001
756,8.57,1.14327,0.0001
757,8.58,1.27483,0.0001
758,8.59,1.35994,0.0001
759,8.6,1.38873,0.0001
760,8.61,1.35426,0.0001
761,8.62,1.25347,0.0001
762,8.63,1.08767,0.0001
763,8.64,0.862809,0.0001
764,8.65,0.589394,0.0001
765,8.66,0.281968,0.0001
766,8.67,-0.0417234,0.0001
767,8.68,-0.361872,0.0001
768,8.69,-0.65798,0.0001
769,8.7,-0.910348,0.0001
770,8.71,-1.10157,0.0001
771,8.72,-1.21789,0.0001
772,8.73,-1.25041,0.0001
773,8.74,-1.19584,0.0001
774,8.75,-1.05696,0.0001
775,8.76,-0.842558,0.0001
776,8.77,-0.566959,0.0001
777,8.78,-0.24907,0.0001
778,8.79,0.0889108,0.0001
779,8.8,0.423079,0.0001
780,8.81,0.729569,0.0001
781,8.82,0.986324,0.0001
782,8.83,1.17476,0.0001
783,8.84,1.2812,0.0001
784,8.85,1.29791,0.0001
785,8.86,1.22378,0.0001
786,8.87,1.06439,0.0001
787,8.88,0.831673,0.0001
788,8.89,0.543046,0.0001
789,8.9,0.22009,0.0001
790,8.91,-0.113053,0.0001
791,8.92,-0.431503,0.0001
792,8.93,-0.711531,0.0001
793,8.94,-0.932359,0.0001
794,8.95,-1.07774,0.0001
795,8.96,-1.13717,0.0001
796,8.97,-1.1067,0.0001
797,8.98,-0.989213,0.0001
798,8.99,-0.794153,0.0001
799,9,-0.536797,0.0001