File: data-release/xrd_measurements/NaiLiI/T_of_r.csv
,r,T
0,0.1109,-0.0385118
1,0.1978,-0.0845201
2,0.4711,-0.203052
3,0.7345,-0.334651
4,1.0,-0.482706
5,1.284,-0.654578
6,1.547,-0.830562
7,1.828,-1.0355
8,2.101,-1.25221
9,2.369,-1.42655
10,2.608,-1.5319
11,2.732,-1.15053
12,2.794,-0.402629
13,2.832,-0.163957
14,2.998,1.17009
15,3.008,0.84849
16,3.142,0.340008
17,3.179,0.207554
18,3.179,0.0114671
19,3.217,-0.344759
20,3.241,-0.626622
21,3.241,-0.806192
22,3.296,-1.18112
23,3.386,-1.71371
24,3.522,-2.28995
25,3.681,-2.63353
26,3.835,-2.39898
27,3.887,-1.94807
28,3.925,-1.72543
29,3.962,-1.44905
30,4.037,-0.482293
31,4.099,0.746675
32,4.136,1.13534
33,4.136,0.983169
34,4.161,1.60299
35,4.265,2.18459
36,4.372,1.79309
37,4.372,1.63066
38,4.409,1.23732
39,4.583,-1.67618
40,4.608,-2.22431
41,4.665,-2.78609
42,4.824,-3.42761
43,5.013,-2.84583
44,5.197,-2.09265
45,5.363,-2.39724
46,5.44,-3.19538
47,5.547,-3.98895
48,5.701,-4.52825
49,5.945,-3.85077
50,6.049,-3.25504
51,6.206,-3.94327
52,6.268,-4.36861
53,6.427,-3.67219
54,6.496,-2.5358
55,6.496,-2.77575
56,6.521,-1.90317
57,6.558,-0.985255
58,6.596,-0.70688
59,6.596,-0.138235
60,6.752,1.16419
61,6.772,1.73435
62,6.906,0.704977
63,7.06,-0.860763
64,7.085,-0.235631
65,7.254,0.965531
66,7.378,2.66134
67,7.396,2.06757
68,7.515,0.954188
69,7.552,-0.344327
70,7.59,-1.37411
71,7.689,-4.70584
72,7.689,-4.09039
73,7.766,-5.99478
74,7.848,-7.8755
75,8.017,-9.10062
76,8.223,-8.45351
77,8.345,-7.04978
78,8.439,-5.93378
79,8.569,-4.74832
80,8.72,-3.47915
81,8.827,-2.48926
82,8.931,-1.01188
83,9.085,0.180239
84,9.354,-0.0924507
85,9.366,-0.657782
86,9.59,-0.248373
87,9.759,-1.5503
88,9.923,-2.76183
89,10.07,-4.29057
90,10.18,-5.60357
91,10.27,-7.27161
92,10.41,-8.58774
93,10.61,-8.45421
94,10.74,-6.37477
95,10.82,-4.88997
96,10.87,-3.50729
97,10.87,-3.97557
98,10.91,-2.63316
99,10.94,-1.91312
100,10.97,-1.0403
101,11.0,-0.0138875
102,11.04,1.12698
103,11.07,2.15228
104,11.12,3.48968
105,11.24,5.99243
106,11.25,5.01572
107,11.34,3.39101
108,11.38,2.91449
109,11.59,-8.16359
110,11.65,-11.7202
111,11.69,-12.7683
112,11.84,-16.2121
113,11.85,-15.3667
114,12.0,-14.7301
115,12.0,-15.4703
116,12.0,-15.9161
117,12.03,-13.8947
118,12.06,-13.0985
119,12.1,-11.7278
120,12.14,-10.8688
121,12.16,-9.23749
122,12.16,-9.68928
123,12.19,-8.18079
124,12.24,-6.81255
125,12.27,-5.46959
126,12.27,-6.30079
127,12.34,-3.14566
128,12.37,-0.792455
129,12.42,0.551047
130,12.54,2.45618
131,12.69,3.24999
132,12.84,1.06063
133,12.92,-0.652458
134,12.99,-2.65537
135,13.08,-4.47784
136,13.22,-6.07237
137,13.42,-5.66854
138,13.6,-2.71334
139,13.81,-0.986825
140,13.98,-2.89253
141,14.03,-4.42315
142,14.07,-5.75227
143,14.11,-7.15861
144,14.15,-8.74688
145,14.19,-10.3445
146,14.22,-11.7667
147,14.25,-12.8453
148,14.28,-13.7686
149,14.32,-14.6698
150,14.32,-15.4652
151,14.46,-17.1291
152,14.53,-18.0348
153,14.68,-16.7013
154,14.73,-14.6382
155,14.77,-13.6763
156,14.82,-11.7874
157,14.9,-9.99949
158,14.94,-8.31531
159,15.01,-4.65793
160,15.04,-3.18563
161,15.04,-3.83394
162,15.07,-1.24375
163,15.1,0.18519
164,15.14,2.01518
165,15.18,3.79461
166,15.22,5.77005
167,15.24,6.4373
168,15.24,6.99803
169,15.28,7.95889
170,15.38,9.54216
171,15.52,6.36523
172,15.55,4.17316
173,15.59,1.97948
174,15.69,-4.2894
175,15.77,-8.97182
176,15.79,-10.1497
177,15.91,-11.4613
178,16.05,-8.34028
179,16.1,-5.59098
180,16.14,-4.2139
181,16.2,0.257116
182,16.24,1.45864
183,16.35,3.60347
184,16.47,1.3783
185,16.47,0.873319
186,16.51,0.160795
187,16.61,-6.07491
188,16.68,-11.7488
189,16.71,-14.6529
190,16.75,-17.0564
191,16.81,-19.5005
192,16.95,-21.705
193,17.09,-18.7712
194,17.13,-16.8131
195,17.16,-15.258
196,17.19,-14.0135
197,17.19,-14.5406
198,17.23,-12.0299
199,17.23,-12.8777
200,17.25,-10.7696
201,17.29,-8.346
202,17.29,-9.30396
203,17.35,-6.34555
204,17.37,-5.28315
205,17.45,-1.99849
206,17.6,0.647552
207,17.76,0.0448439
208,17.84,-2.37263
209,17.94,-4.74986
210,18.08,-7.54756
211,18.21,-8.54376
212,18.44,-6.01759
213,18.5,-4.10068
214,18.62,-6.42028
215,18.69,-8.40087
216,18.75,-10.8518
217,18.9,-14.0099
218,18.91,-15.5998
219,18.91,-13.2029
220,19.04,-10.7147
221,19.07,-8.26626
222,19.11,-5.45944
223,19.14,-3.81863
224,19.18,-0.874496
225,19.22,1.01914
226,19.24,2.44292
227,19.24,3.38678
228,19.4,5.89918
229,19.55,2.72205
230,19.55,1.75593
231,19.59,0.431049
232,19.62,-2.46499
233,19.65,-4.52499
234,19.69,-6.11023
235,19.73,-8.67333
236,19.84,-11.1649
237,19.92,-12.1663
238,20.08,-8.43172
239,20.27,-5.79083
240,20.42,-9.22857
241,20.44,-12.0062
242,20.47,-13.7878
243,20.47,-14.5446
244,20.51,-16.2169
245,20.55,-19.0283
246,20.58,-21.3351
247,20.61,-23.6559
248,20.65,-25.7354
249,20.78,-28.9181
250,20.78,-30.3723
251,20.92,-25.5512
252,20.96,-23.0219
253,20.98,-19.4265
254,21.06,-12.6294
255,21.09,-10.9593
256,21.16,-4.22164
257,21.23,1.2559
258,21.35,5.52178
259,21.37,4.10089
260,21.51,3.01823
261,21.57,0.210076
262,21.73,-1.47203
263,21.89,3.3716
264,22.04,6.6463
265,22.09,8.29485
266,22.19,7.73208
267,22.19,4.77852
268,22.22,3.09381
269,22.22,1.99575
270,22.25,0.216698
271,22.29,-1.70213
272,22.32,-3.62864
273,22.32,-4.59075
274,22.37,-6.91446
275,22.42,-9.58009
276,22.47,-11.926
277,22.63,-15.4663
278,22.81,-17.3032
279,23.04,-18.3005
280,23.25,-18.4673
281,23.35,-15.4118
282,23.44,-12.1804
283,23.51,-9.00378
284,23.64,-5.64761
285,23.66,-3.87551
286,23.78,-8.25798
287,23.83,-11.6499
288,23.83,-10.7697
289,23.85,-13.2452
290,23.91,-16.4291
291,24.03,-19.3555
292,24.04,-21.2279
293,24.12,-17.2268
294,24.16,-13.596
295,24.16,-15.3808
296,24.24,-9.46242
297,24.27,-6.03711
298,24.31,-3.05422
299,24.36,0.95778
300,24.51,5.06594
301,24.51,6.66618
302,24.66,4.03842
303,24.8,0.366773
304,24.95,-2.12035
305,25.05,-4.96702
306,25.1,-7.38708
307,25.13,-9.191
308,25.18,-12.6823
309,25.23,-16.2176
310,25.28,-18.5842
311,25.29,-20.3065
312,25.45,-27.2375
313,25.47,-24.8059
314,25.6,-21.3404
315,25.6,-22.4485
316,25.64,-19.3575
317,25.7,-11.1402
318,25.74,-8.93862
319,25.78,-4.19114
320,25.8,-2.1293
321,25.84,0.568571
322,25.88,1.68968
323,25.88,2.95928
324,26.01,6.52998
325,26.15,2.73547
326,26.21,0.0661801
327,26.26,-2.45807
328,26.3,-5.14941
329,26.38,-9.09598
330,26.46,-12.4469
331,26.51,-14.9185
332,26.54,-17.681
333,26.6,-21.0322
334,26.62,-23.3429
335,26.7,-27.121
336,26.85,-29.9174
337,27.01,-25.1756
338,27.05,-22.3832
339,27.07,-20.2321
340,27.12,-17.1987
341,27.18,-13.2876
342,27.18,-14.6259
343,27.31,-8.87858
344,27.47,-6.32577
345,27.72,-5.39345
346,27.97,-6.2694
347,28.13,-7.10179
348,28.25,-2.12261
349,28.27,0.795394
350,28.27,-0.244737
351,28.31,2.71634
352,28.31,1.50113
353,28.34,5.16242
354,28.37,9.01566
355,28.37,7.78764
356,28.51,13.5542
357,28.53,16.1571
358,28.65,10.5101
359,28.68,6.1037
360,28.71,3.45893
361,28.78,-4.67886
362,28.82,-6.99219
363,28.88,-16.4303
364,28.92,-20.5486
365,28.98,-25.1615
366,29.06,-29.057
367,29.19,-32.9249
368,29.37,-36.4545
369,29.51,-36.2663
370,29.57,-33.5668
371,29.57,-32.2975
372,29.6,-29.96
373,29.64,-27.4452
374,29.68,-24.5595
375,29.7,-21.1028
376,29.74,-17.7252
377,29.78,-14.7424
378,29.8,-10.3485
379,29.84,-8.89296
380,29.88,-6.14568
381,29.88,-4.8577
382,29.94,-1.03354