File: data/xrd_measurements/GeO2/F_of_Q.csv
,Q,F,dF
0,0.24,-0.405549,1.00E-07
1,0.28,-0.405327,0.000757398
2,0.32,-0.404379,0.000921227
3,0.36,-0.40254,0.00102957
4,0.4,-0.399657,0.00120653
5,0.44,-0.395851,0.001358
6,0.48,-0.391518,0.00141865
7,0.52,-0.387066,0.00067699
8,0.56,-0.382846,0.000701654
9,0.6,-0.378699,0.000755646
10,0.64,-0.374202,0.000792214
11,0.68,-0.368932,0.000869164
12,0.72,-0.362595,0.000930153
13,0.76,-0.355431,0.00098054
14,0.8,-0.347815,0.00106529
15,0.84,-0.340118,0.00111679
16,0.88,-0.33231,0.00116949
17,0.92,-0.323551,0.0012069
18,0.96,-0.312904,0.00130178
19,1,-0.299441,0.00133342
20,1.04,-0.282494,0.000536866
21,1.08,-0.261662,0.000552841
22,1.12,-0.236562,0.000571229
23,1.16,-0.206792,0.000603791
24,1.2,-0.171805,0.000640184
25,1.24,-0.130975,0.000686019
26,1.28,-0.0836719,0.000731497
27,1.32,-0.0302646,0.000788286
28,1.36,0.0242595,0.000878964
29,1.4,0.0735787,0.000941473
30,1.44,0.111379,0.00100823
31,1.48,0.133459,0.00105916
32,1.52,0.140597,0.00110881
33,1.56,0.134284,0.00113822
34,1.6,0.116041,0.00116158
35,1.64,0.0885173,0.00117985
36,1.68,0.0558023,0.00118969
37,1.72,0.0220808,0.000609623
38,1.76,-0.00865757,0.000596685
39,1.8,-0.0350833,0.000580655
40,1.84,-0.0577895,0.00057385
41,1.88,-0.0774116,0.000561306
42,1.92,-0.0945162,0.000555792
43,1.96,-0.109213,0.000550168
44,2,-0.121426,0.000546443
45,2.04,-0.131081,0.00054448
46,2.08,-0.138191,0.000544288
47,2.12,-0.143084,0.000545248
48,2.16,-0.146161,0.000549414
49,2.2,-0.147818,0.000549922
50,2.24,-0.148337,0.000563504
51,2.28,-0.147765,0.000565767
52,2.32,-0.146121,0.000572749
53,2.36,-0.143431,0.000575442
54,2.4,-0.139834,0.000584035
55,2.44,-0.135613,0.000593885
56,2.48,-0.131058,0.00060187
57,2.52,-0.126479,0.000610602
58,2.56,-0.122444,0.00061778
59,2.6,-0.119715,0.000622226
60,2.64,-0.11906,0.000628978
61,2.68,-0.121105,0.000631158
62,2.72,-0.125389,0.000637572
63,2.76,-0.130935,0.000637331
64,2.8,-0.136768,0.000639181
65,2.84,-0.142049,0.000639606
66,2.88,-0.146607,0.000643315
67,2.92,-0.15046,0.000645244
68,2.96,-0.153631,0.000647315
69,3,-0.156126,0.000552185
70,3.04,-0.157906,0.000552687
71,3.08,-0.158926,0.000559532
72,3.12,-0.15914,0.000558711
73,3.16,-0.158539,0.00056365
74,3.2,-0.157186,0.000566469
75,3.24,-0.155154,0.00057
76,3.28,-0.152515,0.000575058
77,3.32,-0.149299,0.000578868
78,3.36,-0.14548,0.000586442
79,3.4,-0.141025,0.000592995
80,3.44,-0.135905,0.000598164
81,3.48,-0.130093,0.000604336
82,3.52,-0.123574,0.000615166
83,3.56,-0.116328,0.000624453
84,3.6,-0.108341,0.000632726
85,3.64,-0.0996037,0.000641793
86,3.68,-0.0901165,0.000653887
87,3.72,-0.0798793,0.000662923
88,3.76,-0.0688861,0.0006743
89,3.8,-0.0570635,0.00069155
90,3.84,-0.0442961,0.000705113
91,3.88,-0.030468,0.000716814
92,3.92,-0.0154772,0.000731643
93,3.96,0.000657464,0.00074846
94,4,0.0178558,0.000766915
95,4.04,0.0360369,0.000779283
96,4.08,0.055072,0.000798727
97,4.12,0.0744939,0.000818311
98,4.16,0.0936901,0.000835552
99,4.2,0.112047,0.000851795
100,4.24,0.129008,0.000870049
101,4.28,0.144351,0.000888882
102,4.32,0.157987,0.000901017
103,4.36,0.169821,0.000917328
104,4.4,0.179782,0.000932661
105,4.44,0.187897,0.000943766
106,4.48,0.194228,0.0009549
107,4.52,0.198839,0.000964823
108,4.56,0.201824,0.000976163
109,4.6,0.203455,0.000983219
110,4.64,0.204058,0.000989556
111,4.68,0.203961,0.000993893
112,4.72,0.203407,0.00100057
113,4.76,0.202157,0.0010046
114,4.8,0.199811,0.00101393
115,4.84,0.195968,0.0010169
116,4.88,0.190215,0.00102027
117,4.92,0.182067,0.00102038
118,4.96,0.171013,0.00102023
119,5,0.156542,0.00101663
120,5.04,0.138276,0.00100689
121,5.08,0.116729,0.000996989
122,5.12,0.0927905,0.000984173
123,5.16,0.0673492,0.000967172
124,5.2,0.0412948,0.00095397
125,5.24,0.0155205,0.000935435
126,5.28,-0.00907855,0.000924179
127,5.32,-0.0316073,0.000908575
128,5.36,-0.0512297,0.000903703
129,5.4,-0.0677649,0.000889975
130,5.44,-0.0814404,0.000890482
131,5.48,-0.0924897,0.000886989
132,5.52,-0.101149,0.000887485
133,5.56,-0.107705,0.000881935
134,5.6,-0.112481,0.00088511
135,5.64,-0.115805,0.000887731
136,5.68,-0.117998,0.000895162
137,5.72,-0.119265,0.00090141
138,5.76,-0.119674,0.000904741
139,5.8,-0.119285,0.000913482
140,5.84,-0.118159,0.000924086
141,5.88,-0.116438,0.000929497
142,5.92,-0.114404,0.000934298
143,5.96,-0.112354,0.000939244
144,6,-0.110582,0.000950405
145,6.04,-0.109274,0.000960372
146,6.08,-0.108305,0.000964352
147,6.12,-0.107498,0.000971118
148,6.16,-0.106677,0.000983462
149,6.2,-0.105696,0.000990979
150,6.24,-0.104568,0.000999165
151,6.28,-0.103356,0.000995502
152,6.32,-0.102126,0.00100448
153,6.36,-0.100928,0.0010208
154,6.4,-0.0996879,0.00102214
155,6.44,-0.0982584,0.00101972
156,6.48,-0.0964896,0.00103831
157,6.52,-0.0942339,0.00104669
158,6.56,-0.091404,0.00105086
159,6.6,-0.0879815,0.00106186
160,6.64,-0.083952,0.00107495
161,6.68,-0.0793008,0.00107784
162,6.72,-0.0740108,0.00109751
163,6.75999,-0.0680575,0.0011003
164,6.79999,-0.0614157,0.00111493
165,6.83999,-0.0540601,0.00113179
166,6.87999,-0.0459825,0.00113859
167,6.91999,-0.0372801,0.00116351
168,6.95999,-0.0280895,0.00117512
169,6.99999,-0.0185475,0.00118414
170,7.03999,-0.00879245,0.00120917
171,7.07999,0.00100991,0.00121443
172,7.11999,0.0106677,0.00123423
173,7.15999,0.019988,0.00125359
174,7.19999,0.028778,0.00127092
175,7.23999,0.0368731,0.00128458
176,7.27999,0.0441792,0.00129106
177,7.31999,0.0506132,0.00130716
178,7.35999,0.0560919,0.00131507
179,7.39999,0.0605345,0.00133744
180,7.43999,0.0638825,0.00133718
181,7.47999,0.0660879,0.00134627
182,7.51999,0.0671028,0.00135116
183,7.55999,0.0668815,0.00135843
184,7.59999,0.0654944,0.00136
185,7.63999,0.0631928,0.00136758
186,7.67999,0.0602433,0.00136122
187,7.71999,0.0569126,0.00135988
188,7.75999,0.0534538,0.00137112
189,7.79999,0.0500402,0.00137557
190,7.83999,0.0468159,0.00136385
191,7.87999,0.0439249,0.00137485
192,7.91999,0.0415094,0.00136915
193,7.95999,0.0396249,0.00137515
194,7.99999,0.0382068,0.00138232
195,8.03999,0.037182,0.00138554
196,8.07999,0.0364771,0.0013791
197,8.11999,0.03603,0.00138224
198,8.15999,0.0358495,0.00139718
199,8.19999,0.035973,0.00139496
200,8.23999,0.0364375,0.00140022
201,8.27999,0.0372795,0.00141129
202,8.31999,0.0384518,0.00140876
203,8.35999,0.0397568,0.00142254
204,8.39999,0.0409809,0.0014224
205,8.43999,0.0419106,0.00142643
206,8.47999,0.0423488,0.00144036
207,8.51999,0.0422833,0.00144271
208,8.55999,0.0418195,0.00144485
209,8.59999,0.0410648,0.00144338
210,8.63999,0.0401264,0.00146012
211,8.67999,0.039062,0.0014497
212,8.71999,0.0377478,0.00145042
213,8.75999,0.0360182,0.00145532
214,8.79999,0.0337075,0.00146667
215,8.83999,0.0306528,0.0014606
216,8.87999,0.0268277,0.00146724
217,8.91999,0.0224107,0.00145986
218,8.95999,0.0175969,0.00145331
219,8.99999,0.0125816,0.00145146
220,9.03999,0.00755053,0.0014517
221,9.07999,0.00256034,0.00144947
222,9.11999,-0.00242615,0.00145351
223,9.15999,-0.00744822,0.00144785
224,9.19999,-0.0125451,0.00143343
225,9.23999,-0.0177435,0.0014395
226,9.27999,-0.022992,0.00144281
227,9.31999,-0.0282096,0.00143947
228,9.35999,-0.0333151,0.00143144
229,9.39999,-0.0382274,0.00142528
230,9.43999,-0.0428639,0.00142578
231,9.47999,-0.0471371,0.00142532
232,9.51999,-0.0509588,0.0014239
233,9.55999,-0.0542405,0.00143544
234,9.59999,-0.056894,0.00142521
235,9.63999,-0.0588873,0.00142425
236,9.67999,-0.0603167,0.00143204
237,9.71999,-0.0612958,0.00143337
238,9.75999,-0.0619385,0.00142929
239,9.79999,-0.0623577,0.00144267
240,9.83999,-0.0625943,0.00144972
241,9.87999,-0.0625642,0.00144192
242,9.91999,-0.0621713,0.00145317
243,9.95999,-0.0613194,0.00146185
244,9.99999,-0.0599145,0.00146122
245,10.04,-0.0579823,0.0014639
246,10.08,-0.0557279,0.00146622
247,10.12,-0.0533717,0.00147933
248,10.16,-0.0511336,0.00149158
249,10.2,-0.0492311,0.00149992
250,10.24,-0.0477334,0.00149682
251,10.28,-0.0464896,0.00150036
252,10.32,-0.0453309,0.00150474
253,10.36,-0.0440886,0.00150867
254,10.4,-0.0425949,0.00152277
255,10.44,-0.0407705,0.001533
256,10.48,-0.038685,0.00153876
257,10.52,-0.0364223,0.0015397
258,10.56,-0.0340663,0.00154519
259,10.6,-0.0317008,0.00155117
260,10.64,-0.0293702,0.00157131
261,10.68,-0.0270324,0.00158203
262,10.72,-0.0246336,0.00158153
263,10.76,-0.02212,0.0015794
264,10.8,-0.0194379,0.0016038
265,10.84,-0.0165404,0.00160493
266,10.88,-0.0134043,0.00161824
267,10.92,-0.0100113,0.00161512
268,10.96,-0.00634334,0.00163117
269,11,-0.00238219,0.00163591
270,11.04,0.00188349,0.00165664
271,11.08,0.006421,0.00165161
272,11.12,0.0111802,0.00166419
273,11.16,0.0161109,0.00168855
274,11.2,0.0211629,0.00169704
275,11.24,0.0262856,0.00170569
276,11.28,0.0314212,0.0017138
277,11.32,0.0365061,0.00171095
278,11.36,0.0414765,0.00173253
279,11.4,0.0462685,0.00175199
280,11.44,0.0508183,0.00176624
281,11.48,0.0550335,0.00176747
282,11.52,0.0587681,0.00176788
283,11.56,0.06187,0.00177986
284,11.6,0.0641871,0.00179948
285,11.64,0.0655673,0.00180256
286,11.68,0.0658989,0.00180246
287,11.72,0.0653066,0.00180165
288,11.76,0.0640012,0.0018149
289,11.8,0.0621936,0.00181686
290,11.84,0.0600948,0.00181423
291,11.88,0.0579113,0.00181273
292,11.92,0.0557035,0.00182113
293,11.96,0.0533556,0.00181835
294,12,0.0507414,0.00180378
295,12.04,0.0477344,0.00180292
296,12.08,0.0442085,0.00181254
297,12.12,0.0400771,0.00180657
298,12.16,0.035457,0.00178967
299,12.2,0.0305297,0.00179693
300,12.24,0.0254766,0.00179456
301,12.28,0.0204792,0.00180763
302,12.32,0.0157175,0.00179585
303,12.36,0.011289,0.00178716
304,12.4,0.00716709,0.00178997
305,12.44,0.00331468,0.0017923
306,12.48,-0.000305135,0.00177186
307,12.52,-0.00372933,0.00177251
308,12.56,-0.00699469,0.00176471
309,12.6,-0.0101361,0.0017767
310,12.64,-0.0131876,0.00177845
311,12.68,-0.0161828,0.00177864
312,12.72,-0.0191558,0.00176949
313,12.76,-0.0221402,0.00177747
314,12.8,-0.0251515,0.00177009
315,12.84,-0.0281276,0.00178013
316,12.88,-0.0309868,0.00177371
317,12.92,-0.0336472,0.00175511
318,12.96,-0.0360268,0.00176526
319,13,-0.0380442,0.00176796
320,13.04,-0.0396583,0.0017639
321,13.08,-0.0409191,0.00175528
322,13.12,-0.0418882,0.00176341
323,13.16,-0.0426277,0.00177635
324,13.2,-0.0431993,0.00177732
325,13.24,-0.0436642,0.00179281
326,13.28,-0.0440468,0.00178958
327,13.32,-0.044315,0.00178601
328,13.36,-0.0444325,0.00179529
329,13.4,-0.0443629,0.00179966
330,13.44,-0.0440695,0.00180602
331,13.48,-0.0435167,0.00182127
332,13.52,-0.0426913,0.00181565
333,13.56,-0.0416098,0.00181104
334,13.6,-0.0402904,0.00182782
335,13.64,-0.0387513,0.00184584
336,13.68,-0.0370106,0.00183059
337,13.72,-0.0350867,0.00184799
338,13.76,-0.0329972,0.00184789
339,13.8,-0.0307588,0.00188298
340,13.84,-0.0283883,0.0018748
341,13.88,-0.0259025,0.00188077
342,13.92,-0.0233181,0.00187449
343,13.96,-0.0206521,0.00189535
344,14,-0.017935,0.00191263
345,14.04,-0.0152211,0.00192581
346,14.08,-0.0125671,0.00191352
347,14.12,-0.0100295,0.0019298
348,14.16,-0.00766493,0.00192565
349,14.2,-0.00553,0.00192213
350,14.24,-0.00365561,0.00195552
351,14.28,-0.00199858,0.00196763
352,14.32,-0.00050252,0.00198645
353,14.36,0.00088899,0.00198814
354,14.4,0.00223236,0.0019966
355,14.44,0.00358399,0.00200021
356,14.48,0.00498897,0.00198967
357,14.52,0.00641899,0.00202664
358,14.56,0.00781648,0.00203602
359,14.6,0.00912382,0.00203146
360,14.64,0.0102834,0.00205755
361,14.68,0.0112375,0.00203681
362,14.72,0.0119313,0.00202196
363,14.76,0.0123802,0.00203694
364,14.8,0.0126728,0.00204905
365,14.84,0.0129012,0.00205508
366,14.88,0.0131575,0.00206896
367,14.92,0.0135338,0.00205966
368,14.96,0.0141221,0.00207362
369,15,0.0149836,0.00207704
370,15.04,0.0160664,0.00208386
371,15.08,0.0172929,0.00211256
372,15.12,0.0185855,0.00209915
373,15.16,0.0198666,0.00209654
374,15.2,0.0210587,0.00211178
375,15.24,0.0220864,0.00212066
376,15.28,0.02293,0.00212063
377,15.32,0.0236275,0.0021208
378,15.36,0.0242198,0.00214554
379,15.4,0.0247476,0.00215878
380,15.44,0.0252517,0.00217464
381,15.48,0.025773,0.00217752
382,15.52,0.026341,0.00215102
383,15.56,0.0269108,0.0021718
384,15.6,0.0274082,0.00218398
385,15.64,0.0277586,0.00219133
386,15.68,0.0278875,0.00218946
387,15.72,0.0277204,0.00218236
388,15.76,0.0271827,0.00221127
389,15.8,0.026233,0.0022135
390,15.84,0.024931,0.00218901
391,15.88,0.0233555,0.00220955
392,15.92,0.0215852,0.00222645
393,15.96,0.019699,0.00220128
394,16,0.0177757,0.00221106
395,16.04,0.0158938,0.00220971
396,16.08,0.0140921,0.00223284
397,16.12,0.01233,0.00221302
398,16.16,0.010557,0.00221601
399,16.2,0.00872279,0.0022134
400,16.24,0.00677703,0.00114241
401,16.28,0.00466935,0.00114026
402,16.32,0.00234985,0.00113656
403,16.36,-0.000190151,0.00113482
404,16.4,-0.00288455,0.00113009
405,16.44,-0.00565937,0.00113773
406,16.48,-0.00844064,0.00113506
407,16.52,-0.0111544,0.00112964
408,16.56,-0.0137266,0.00112849
409,16.6,-0.0160834,0.00112592
410,16.64,-0.0181799,0.00112009
411,16.68,-0.0200352,0.00112355
412,16.72,-0.0216771,0.00112521
413,16.76,-0.0231334,0.0011252
414,16.8,-0.0244321,0.00112216
415,16.84,-0.0256009,0.00112377
416,16.88,-0.0266676,0.0011227
417,16.92,-0.0276507,0.00112588
418,16.96,-0.0285317,0.00112618
419,17,-0.0292833,0.00112969
420,17.04,-0.0298782,0.00113181
421,17.08,-0.0302891,0.00113151
422,17.12,-0.0304886,0.00113069
423,17.16,-0.0304495,0.00113145
424,17.2,-0.0301477,0.00113328
425,17.24,-0.0295932,0.0011357
426,17.28,-0.0288159,0.00113582
427,17.32,-0.0278463,0.00114061
428,17.36,-0.0267147,0.00114092
429,17.4,-0.0254513,0.00114149
430,17.44,-0.0240866,0.00114597
431,17.48,-0.0226507,0.00114698
432,17.52,-0.0211584,0.00115494
433,17.56,-0.0195951,0.00115874
434,17.6,-0.0179433,0.00115821
435,17.64,-0.0161852,0.00116589
436,17.68,-0.0143034,0.00117144
437,17.72,-0.0122801,0.00117341
438,17.76,-0.0100977,0.00117434
439,17.8,-0.00774246,0.00118081
440,17.84,-0.00524013,0.00118453
441,17.88,-0.00264011,0.0011892
442,17.92,7.92821e-06,0.00119476
443,17.96,0.00265431,0.00120175
444,18,0.00524935,0.0012039
445,18.04,0.00774339,0.00121211
446,18.08,0.0100867,0.00121655
447,18.12,0.0122404,0.00121962
448,18.16,0.0142083,0.00122316
449,18.2,0.016005,0.00122603
450,18.24,0.0176451,0.0012312
451,18.28,0.0191431,0.00123613
452,18.32,0.0205136,0.00123826
453,18.36,0.0217712,0.00124495
454,18.4,0.0229305,0.00125175
455,18.44,0.0239986,0.00125109
456,18.48,0.0249645,0.00125461
457,18.52,0.0258146,0.00125774
458,18.56,0.0265349,0.00125891
459,18.6,0.0271119,0.00126029
460,18.64,0.0275316,0.00126633
461,18.68,0.0277805,0.00127081
462,18.72,0.0278446,0.00127066
463,18.76,0.0277194,0.00127065
464,18.8001,0.0274209,0.00126874
465,18.8401,0.0269682,0.00127442
466,18.8801,0.0263804,0.00127098
467,18.9201,0.0256765,0.00127107
468,18.9601,0.0248756,0.00127236
469,19.0001,0.0239968,0.0012763
470,19.0401,0.0230591,0.00127718
471,19.0801,0.0220791,0.00127313
472,19.1201,0.0210647,0.00127159
473,19.1601,0.0200219,0.00127611
474,19.2001,0.0189568,0.00127757
475,19.2401,0.0178754,0.0012795
476,19.2801,0.0167838,0.00128016
477,19.3201,0.0156882,0.0012812
478,19.3601,0.0145945,0.0012803
479,19.4001,0.0135086,0.0012836
480,19.4401,0.0124344,0.00128304
481,19.4801,0.0113747,0.00127977
482,19.5201,0.0103324,0.00127793
483,19.5601,0.00931052,0.0012791
484,19.6001,0.00831185,0.0012818
485,19.6401,0.00733932,0.00128099
486,19.6801,0.00639583,0.00128061
487,19.7201,0.00548417,0.00128176
488,19.7601,0.00460021,0.00128138
489,19.8001,0.00372931,0.00128825
490,19.8401,0.00285593,0.00129141
491,19.8801,0.00196453,0.00129294
492,19.9201,0.00103958,0.00128863
493,19.9601,6.55343e-05,0.0012884
,,,
,,,
,,,
,,,
,,,