File: data/xrd_measurements/GeO2/F_of_Q_big.csv
,Q,F,dF
0,0.04,-0.404879,1e-07
1,0.08,-0.405034,1e-07
2,0.12,-0.404517,1e-07
3,0.16,-0.404734,1e-07
4,0.2,-0.40523,1e-07
5,0.24,-0.405549,1e-07
6,0.28,-0.405327,0.000757398
7,0.32,-0.404379,0.000921227
8,0.36,-0.40254,0.00102957
9,0.4,-0.399657,0.00120653
10,0.44,-0.395851,0.001358
11,0.48,-0.391518,0.00141865
12,0.52,-0.387066,0.00067699
13,0.56,-0.382846,0.000701654
14,0.6,-0.378699,0.000755646
15,0.64,-0.374202,0.000792214
16,0.68,-0.368932,0.000869164
17,0.72,-0.362595,0.000930153
18,0.76,-0.355431,0.00098054
19,0.8,-0.347815,0.00106529
20,0.84,-0.340118,0.00111679
21,0.88,-0.33231,0.00116949
22,0.92,-0.323551,0.0012069
23,0.96,-0.312904,0.00130178
24,1.0,-0.299441,0.00133342
25,1.04,-0.282494,0.000536866
26,1.08,-0.261662,0.000552841
27,1.12,-0.236562,0.000571229
28,1.16,-0.206792,0.000603791
29,1.2,-0.171805,0.000640184
30,1.24,-0.130975,0.000686019
31,1.28,-0.0836719,0.000731497
32,1.32,-0.0302646,0.000788286
33,1.36,0.0242595,0.000878964
34,1.4,0.0735787,0.000941473
35,1.44,0.111379,0.00100823
36,1.48,0.133459,0.00105916
37,1.52,0.140597,0.00110881
38,1.56,0.134284,0.00113822
39,1.6,0.116041,0.00116158
40,1.64,0.0885173,0.00117985
41,1.68,0.0558023,0.00118969
42,1.72,0.0220808,0.000609623
43,1.76,-0.00865757,0.000596685
44,1.8,-0.0350833,0.000580655
45,1.84,-0.0577895,0.00057385
46,1.88,-0.0774116,0.000561306
47,1.92,-0.0945162,0.000555792
48,1.96,-0.109213,0.000550168
49,2.0,-0.121426,0.000546443
50,2.04,-0.131081,0.00054448
51,2.08,-0.138191,0.000544288
52,2.12,-0.143084,0.000545248
53,2.16,-0.146161,0.000549414
54,2.2,-0.147818,0.000549922
55,2.24,-0.148337,0.000563504
56,2.28,-0.147765,0.000565767
57,2.32,-0.146121,0.000572749
58,2.36,-0.143431,0.000575442
59,2.4,-0.139834,0.000584035
60,2.44,-0.135613,0.000593885
61,2.48,-0.131058,0.00060187
62,2.52,-0.126479,0.000610602
63,2.56,-0.122444,0.00061778
64,2.6,-0.119715,0.000622226
65,2.64,-0.11906,0.000628978
66,2.68,-0.121105,0.000631158
67,2.72,-0.125389,0.000637572
68,2.76,-0.130935,0.000637331
69,2.8,-0.136768,0.000639181
70,2.84,-0.142049,0.000639606
71,2.88,-0.146607,0.000643315
72,2.92,-0.15046,0.000645244
73,2.96,-0.153631,0.000647315
74,3.0,-0.156126,0.000552185
75,3.04,-0.157906,0.000552687
76,3.08,-0.158926,0.000559532
77,3.12,-0.15914,0.000558711
78,3.16,-0.158539,0.00056365
79,3.2,-0.157186,0.000566469
80,3.24,-0.155154,0.00057
81,3.28,-0.152515,0.000575058
82,3.32,-0.149299,0.000578868
83,3.36,-0.14548,0.000586442
84,3.4,-0.141025,0.000592995
85,3.44,-0.135905,0.000598164
86,3.48,-0.130093,0.000604336
87,3.52,-0.123574,0.000615166
88,3.56,-0.116328,0.000624453
89,3.6,-0.108341,0.000632726
90,3.64,-0.0996037,0.000641793
91,3.68,-0.0901165,0.000653887
92,3.72,-0.0798793,0.000662923
93,3.76,-0.0688861,0.0006743
94,3.8,-0.0570635,0.00069155
95,3.84,-0.0442961,0.000705113
96,3.88,-0.030468,0.000716814
97,3.92,-0.0154772,0.000731643
98,3.96,0.000657464,0.00074846
99,4.0,0.0178558,0.000766915
100,4.04,0.0360369,0.000779283
101,4.08,0.055072,0.000798727
102,4.12,0.0744939,0.000818311
103,4.16,0.0936901,0.000835552
104,4.2,0.112047,0.000851795
105,4.24,0.129008,0.000870049
106,4.28,0.144351,0.000888882
107,4.32,0.157987,0.000901017
108,4.36,0.169821,0.000917328
109,4.4,0.179782,0.000932661
110,4.44,0.187897,0.000943766
111,4.48,0.194228,0.0009549
112,4.52,0.198839,0.000964823
113,4.56,0.201824,0.000976163
114,4.6,0.203455,0.000983219
115,4.64,0.204058,0.000989556
116,4.68,0.203961,0.000993893
117,4.72,0.203407,0.00100057
118,4.76,0.202157,0.0010046
119,4.8,0.199811,0.00101393
120,4.84,0.195968,0.0010169
121,4.88,0.190215,0.00102027
122,4.92,0.182067,0.00102038
123,4.96,0.171013,0.00102023
124,5.0,0.156542,0.00101663
125,5.04,0.138276,0.00100689
126,5.08,0.116729,0.000996989
127,5.12,0.0927905,0.000984173
128,5.16,0.0673492,0.000967172
129,5.2,0.0412948,0.00095397
130,5.24,0.0155205,0.000935435
131,5.28,-0.00907855,0.000924179
132,5.32,-0.0316073,0.000908575
133,5.36,-0.0512297,0.000903703
134,5.4,-0.0677649,0.000889975
135,5.44,-0.0814404,0.000890482
136,5.48,-0.0924897,0.000886989
137,5.52,-0.101149,0.000887485
138,5.56,-0.107705,0.000881935
139,5.6,-0.112481,0.00088511
140,5.64,-0.115805,0.000887731
141,5.68,-0.117998,0.000895162
142,5.72,-0.119265,0.00090141
143,5.76,-0.119674,0.000904741
144,5.8,-0.119285,0.000913482
145,5.84,-0.118159,0.000924086
146,5.88,-0.116438,0.000929497
147,5.92,-0.114404,0.000934298
148,5.96,-0.112354,0.000939244
149,6.0,-0.110582,0.000950405
150,6.04,-0.109274,0.000960372
151,6.08,-0.108305,0.000964352
152,6.12,-0.107498,0.000971118
153,6.16,-0.106677,0.000983462
154,6.2,-0.105696,0.000990979
155,6.24,-0.104568,0.000999165
156,6.28,-0.103356,0.000995502
157,6.32,-0.102126,0.00100448
158,6.36,-0.100928,0.0010208
159,6.4,-0.0996879,0.00102214
160,6.44,-0.0982584,0.00101972
161,6.48,-0.0964896,0.00103831
162,6.52,-0.0942339,0.00104669
163,6.56,-0.091404,0.00105086
164,6.6,-0.0879815,0.00106186
165,6.64,-0.083952,0.00107495
166,6.68,-0.0793008,0.00107784
167,6.72,-0.0740108,0.00109751
168,6.75999,-0.0680575,0.0011003
169,6.79999,-0.0614157,0.00111493
170,6.83999,-0.0540601,0.00113179
171,6.87999,-0.0459825,0.00113859
172,6.91999,-0.0372801,0.00116351
173,6.95999,-0.0280895,0.00117512
174,6.99999,-0.0185475,0.00118414
175,7.03999,-0.00879245,0.00120917
176,7.07999,0.00100991,0.00121443
177,7.11999,0.0106677,0.00123423
178,7.15999,0.019988,0.00125359
179,7.19999,0.028778,0.00127092
180,7.23999,0.0368731,0.00128458
181,7.27999,0.0441792,0.00129106
182,7.31999,0.0506132,0.00130716
183,7.35999,0.0560919,0.00131507
184,7.39999,0.0605345,0.00133744
185,7.43999,0.0638825,0.00133718
186,7.47999,0.0660879,0.00134627
187,7.51999,0.0671028,0.00135116
188,7.55999,0.0668815,0.00135843
189,7.59999,0.0654944,0.00136
190,7.63999,0.0631928,0.00136758
191,7.67999,0.0602433,0.00136122
192,7.71999,0.0569126,0.00135988
193,7.75999,0.0534538,0.00137112
194,7.79999,0.0500402,0.00137557
195,7.83999,0.0468159,0.00136385
196,7.87999,0.0439249,0.00137485
197,7.91999,0.0415094,0.00136915
198,7.95999,0.0396249,0.00137515
199,7.99999,0.0382068,0.00138232
200,8.03999,0.037182,0.00138554
201,8.07999,0.0364771,0.0013791
202,8.11999,0.03603,0.00138224
203,8.15999,0.0358495,0.00139718
204,8.19999,0.035973,0.00139496
205,8.23999,0.0364375,0.00140022
206,8.27999,0.0372795,0.00141129
207,8.31999,0.0384518,0.00140876
208,8.35999,0.0397568,0.00142254
209,8.39999,0.0409809,0.0014224
210,8.43999,0.0419106,0.00142643
211,8.47999,0.0423488,0.00144036
212,8.51999,0.0422833,0.00144271
213,8.55999,0.0418195,0.00144485
214,8.59999,0.0410648,0.00144338
215,8.63999,0.0401264,0.00146012
216,8.67999,0.039062,0.0014497
217,8.71999,0.0377478,0.00145042
218,8.75999,0.0360182,0.00145532
219,8.79999,0.0337075,0.00146667
220,8.83999,0.0306528,0.0014606
221,8.87999,0.0268277,0.00146724
222,8.91999,0.0224107,0.00145986
223,8.95999,0.0175969,0.00145331
224,8.99999,0.0125816,0.00145146
225,9.03999,0.00755053,0.0014517
226,9.07999,0.00256034,0.00144947
227,9.11999,-0.00242615,0.00145351
228,9.15999,-0.00744822,0.00144785
229,9.19999,-0.0125451,0.00143343
230,9.23999,-0.0177435,0.0014395
231,9.27999,-0.022992,0.00144281
232,9.31999,-0.0282096,0.00143947
233,9.35999,-0.0333151,0.00143144
234,9.39999,-0.0382274,0.00142528
235,9.43999,-0.0428639,0.00142578
236,9.47999,-0.0471371,0.00142532
237,9.51999,-0.0509588,0.0014239
238,9.55999,-0.0542405,0.00143544
239,9.59999,-0.056894,0.00142521
240,9.63999,-0.0588873,0.00142425
241,9.67999,-0.0603167,0.00143204
242,9.71999,-0.0612958,0.00143337
243,9.75999,-0.0619385,0.00142929
244,9.79999,-0.0623577,0.00144267
245,9.83999,-0.0625943,0.00144972
246,9.87999,-0.0625642,0.00144192
247,9.91999,-0.0621713,0.00145317
248,9.95999,-0.0613194,0.00146185
249,9.99999,-0.0599145,0.00146122
250,10.04,-0.0579823,0.0014639
251,10.08,-0.0557279,0.00146622
252,10.12,-0.0533717,0.00147933
253,10.16,-0.0511336,0.00149158
254,10.2,-0.0492311,0.00149992
255,10.24,-0.0477334,0.00149682
256,10.28,-0.0464896,0.00150036
257,10.32,-0.0453309,0.00150474
258,10.36,-0.0440886,0.00150867
259,10.4,-0.0425949,0.00152277
260,10.44,-0.0407705,0.001533
261,10.48,-0.038685,0.00153876
262,10.52,-0.0364223,0.0015397
263,10.56,-0.0340663,0.00154519
264,10.6,-0.0317008,0.00155117
265,10.64,-0.0293702,0.00157131
266,10.68,-0.0270324,0.00158203
267,10.72,-0.0246336,0.00158153
268,10.76,-0.02212,0.0015794
269,10.8,-0.0194379,0.0016038
270,10.84,-0.0165404,0.00160493
271,10.88,-0.0134043,0.00161824
272,10.92,-0.0100113,0.00161512
273,10.96,-0.00634334,0.00163117
274,11.0,-0.00238219,0.00163591
275,11.04,0.00188349,0.00165664
276,11.08,0.006421,0.00165161
277,11.12,0.0111802,0.00166419
278,11.16,0.0161109,0.00168855
279,11.2,0.0211629,0.00169704
280,11.24,0.0262856,0.00170569
281,11.28,0.0314212,0.0017138
282,11.32,0.0365061,0.00171095
283,11.36,0.0414765,0.00173253
284,11.4,0.0462685,0.00175199
285,11.44,0.0508183,0.00176624
286,11.48,0.0550335,0.00176747
287,11.52,0.0587681,0.00176788
288,11.56,0.06187,0.00177986
289,11.6,0.0641871,0.00179948
290,11.64,0.0655673,0.00180256
291,11.68,0.0658989,0.00180246
292,11.72,0.0653066,0.00180165
293,11.76,0.0640012,0.0018149
294,11.8,0.0621936,0.00181686
295,11.84,0.0600948,0.00181423
296,11.88,0.0579113,0.00181273
297,11.92,0.0557035,0.00182113
298,11.96,0.0533556,0.00181835
299,12.0,0.0507414,0.00180378
300,12.04,0.0477344,0.00180292
301,12.08,0.0442085,0.00181254
302,12.12,0.0400771,0.00180657
303,12.16,0.035457,0.00178967
304,12.2,0.0305297,0.00179693
305,12.24,0.0254766,0.00179456
306,12.28,0.0204792,0.00180763
307,12.32,0.0157175,0.00179585
308,12.36,0.011289,0.00178716
309,12.4,0.00716709,0.00178997
310,12.44,0.00331468,0.0017923
311,12.48,-0.000305135,0.00177186
312,12.52,-0.00372933,0.00177251
313,12.56,-0.00699469,0.00176471
314,12.6,-0.0101361,0.0017767
315,12.64,-0.0131876,0.00177845
316,12.68,-0.0161828,0.00177864
317,12.72,-0.0191558,0.00176949
318,12.76,-0.0221402,0.00177747
319,12.8,-0.0251515,0.00177009
320,12.84,-0.0281276,0.00178013
321,12.88,-0.0309868,0.00177371
322,12.92,-0.0336472,0.00175511
323,12.96,-0.0360268,0.00176526
324,13.0,-0.0380442,0.00176796
325,13.04,-0.0396583,0.0017639
326,13.08,-0.0409191,0.00175528
327,13.12,-0.0418882,0.00176341
328,13.16,-0.0426277,0.00177635
329,13.2,-0.0431993,0.00177732
330,13.24,-0.0436642,0.00179281
331,13.28,-0.0440468,0.00178958
332,13.32,-0.044315,0.00178601
333,13.36,-0.0444325,0.00179529
334,13.4,-0.0443629,0.00179966
335,13.44,-0.0440695,0.00180602
336,13.48,-0.0435167,0.00182127
337,13.52,-0.0426913,0.00181565
338,13.56,-0.0416098,0.00181104
339,13.6,-0.0402904,0.00182782
340,13.64,-0.0387513,0.00184584
341,13.68,-0.0370106,0.00183059
342,13.72,-0.0350867,0.00184799
343,13.76,-0.0329972,0.00184789
344,13.8,-0.0307588,0.00188298
345,13.84,-0.0283883,0.0018748
346,13.88,-0.0259025,0.00188077
347,13.92,-0.0233181,0.00187449
348,13.96,-0.0206521,0.00189535
349,14.0,-0.017935,0.00191263
350,14.04,-0.0152211,0.00192581
351,14.08,-0.0125671,0.00191352
352,14.12,-0.0100295,0.0019298
353,14.16,-0.00766493,0.00192565
354,14.2,-0.00553,0.00192213
355,14.24,-0.00365561,0.00195552
356,14.28,-0.00199858,0.00196763
357,14.32,-0.00050252,0.00198645
358,14.36,0.00088899,0.00198814
359,14.4,0.00223236,0.0019966
360,14.44,0.00358399,0.00200021
361,14.48,0.00498897,0.00198967
362,14.52,0.00641899,0.00202664
363,14.56,0.00781648,0.00203602
364,14.6,0.00912382,0.00203146
365,14.64,0.0102834,0.00205755
366,14.68,0.0112375,0.00203681
367,14.72,0.0119313,0.00202196
368,14.76,0.0123802,0.00203694
369,14.8,0.0126728,0.00204905
370,14.84,0.0129012,0.00205508
371,14.88,0.0131575,0.00206896
372,14.92,0.0135338,0.00205966
373,14.96,0.0141221,0.00207362
374,15.0,0.0149836,0.00207704
375,15.04,0.0160664,0.00208386
376,15.08,0.0172929,0.00211256
377,15.12,0.0185855,0.00209915
378,15.16,0.0198666,0.00209654
379,15.2,0.0210587,0.00211178
380,15.24,0.0220864,0.00212066
381,15.28,0.02293,0.00212063
382,15.32,0.0236275,0.0021208
383,15.36,0.0242198,0.00214554
384,15.4,0.0247476,0.00215878
385,15.44,0.0252517,0.00217464
386,15.48,0.025773,0.00217752
387,15.52,0.026341,0.00215102
388,15.56,0.0269108,0.0021718
389,15.6,0.0274082,0.00218398
390,15.64,0.0277586,0.00219133
391,15.68,0.0278875,0.00218946
392,15.72,0.0277204,0.00218236
393,15.76,0.0271827,0.00221127
394,15.8,0.026233,0.0022135
395,15.84,0.024931,0.00218901
396,15.88,0.0233555,0.00220955
397,15.92,0.0215852,0.00222645
398,15.96,0.019699,0.00220128
399,16.0,0.0177757,0.00221106
400,16.04,0.0158938,0.00220971
401,16.08,0.0140921,0.00223284
402,16.12,0.01233,0.00221302
403,16.16,0.010557,0.00221601
404,16.2,0.00872279,0.0022134
405,16.24,0.00677703,0.00114241
406,16.28,0.00466935,0.00114026
407,16.32,0.00234985,0.00113656
408,16.36,-0.000190151,0.00113482
409,16.4,-0.00288455,0.00113009
410,16.44,-0.00565937,0.00113773
411,16.48,-0.00844064,0.00113506
412,16.52,-0.0111544,0.00112964
413,16.56,-0.0137266,0.00112849
414,16.6,-0.0160834,0.00112592
415,16.64,-0.0181799,0.00112009
416,16.68,-0.0200352,0.00112355
417,16.72,-0.0216771,0.00112521
418,16.76,-0.0231334,0.0011252
419,16.8,-0.0244321,0.00112216
420,16.84,-0.0256009,0.00112377
421,16.88,-0.0266676,0.0011227
422,16.92,-0.0276507,0.00112588
423,16.96,-0.0285317,0.00112618
424,17.0,-0.0292833,0.00112969
425,17.04,-0.0298782,0.00113181
426,17.08,-0.0302891,0.00113151
427,17.12,-0.0304886,0.00113069
428,17.16,-0.0304495,0.00113145
429,17.2,-0.0301477,0.00113328
430,17.24,-0.0295932,0.0011357
431,17.28,-0.0288159,0.00113582
432,17.32,-0.0278463,0.00114061
433,17.36,-0.0267147,0.00114092
434,17.4,-0.0254513,0.00114149
435,17.44,-0.0240866,0.00114597
436,17.48,-0.0226507,0.00114698
437,17.52,-0.0211584,0.00115494
438,17.56,-0.0195951,0.00115874
439,17.6,-0.0179433,0.00115821
440,17.64,-0.0161852,0.00116589
441,17.68,-0.0143034,0.00117144
442,17.72,-0.0122801,0.00117341
443,17.76,-0.0100977,0.00117434
444,17.8,-0.00774246,0.00118081
445,17.84,-0.00524013,0.00118453
446,17.88,-0.00264011,0.0011892
447,17.92,7.92821e-06,0.00119476
448,17.96,0.00265431,0.00120175
449,18.0,0.00524935,0.0012039
450,18.04,0.00774339,0.00121211
451,18.08,0.0100867,0.00121655
452,18.12,0.0122404,0.00121962
453,18.16,0.0142083,0.00122316
454,18.2,0.016005,0.00122603
455,18.24,0.0176451,0.0012312
456,18.28,0.0191431,0.00123613
457,18.32,0.0205136,0.00123826
458,18.36,0.0217712,0.00124495
459,18.4,0.0229305,0.00125175
460,18.44,0.0239986,0.00125109
461,18.48,0.0249645,0.00125461
462,18.52,0.0258146,0.00125774
463,18.56,0.0265349,0.00125891
464,18.6,0.0271119,0.00126029
465,18.64,0.0275316,0.00126633
466,18.68,0.0277805,0.00127081
467,18.72,0.0278446,0.00127066
468,18.76,0.0277194,0.00127065
469,18.8001,0.0274209,0.00126874
470,18.8401,0.0269682,0.00127442
471,18.8801,0.0263804,0.00127098
472,18.9201,0.0256765,0.00127107
473,18.9601,0.0248756,0.00127236
474,19.0001,0.0239968,0.0012763
475,19.0401,0.0230591,0.00127718
476,19.0801,0.0220791,0.00127313
477,19.1201,0.0210647,0.00127159
478,19.1601,0.0200219,0.00127611
479,19.2001,0.0189568,0.00127757
480,19.2401,0.0178754,0.0012795
481,19.2801,0.0167838,0.00128016
482,19.3201,0.0156882,0.0012812
483,19.3601,0.0145945,0.0012803
484,19.4001,0.0135086,0.0012836
485,19.4401,0.0124344,0.00128304
486,19.4801,0.0113747,0.00127977
487,19.5201,0.0103324,0.00127793
488,19.5601,0.00931052,0.0012791
489,19.6001,0.00831185,0.0012818
490,19.6401,0.00733932,0.00128099
491,19.6801,0.00639583,0.00128061
492,19.7201,0.00548417,0.00128176
493,19.7601,0.00460021,0.00128138
494,19.8001,0.00372931,0.00128825
495,19.8401,0.00285593,0.00129141
496,19.8801,0.00196453,0.00129294
497,19.9201,0.00103958,0.00128863
498,19.9601,6.55343e-05,0.0012884
499,20.0001,-0.000973136,0.00128771
500,20.0401,-0.00209197,0.00128935
501,20.0801,-0.00330364,0.00128727
502,20.1201,-0.00459455,0.00128625
503,20.1601,-0.005937,0.00128824
504,20.2001,-0.00730318,0.00129387
505,20.2401,-0.00866525,0.0012924
506,20.2801,-0.00999538,0.00129438
507,20.3201,-0.0112657,0.00130364
508,20.3601,-0.0124485,0.00128884
509,20.4001,-0.0135159,0.00129952
510,20.4401,-0.0144452,0.00129696
511,20.4801,-0.0152373,0.00129205
512,20.5201,-0.0158995,0.00129563
513,20.5601,-0.0164393,0.00129874
514,20.6001,-0.0168642,0.00130403
515,20.6401,-0.0171815,0.00130197
516,20.6801,-0.0173986,0.00130091
517,20.7201,-0.017523,0.00130946
518,20.7601,-0.0175621,0.00131374
519,20.8001,-0.0175218,0.00131195
520,20.8401,-0.0174018,0.00131661
521,20.8801,-0.0172004,0.00131687
522,20.9201,-0.0169159,0.00131948
523,20.9601,-0.0165465,0.0013233
524,21.0001,-0.0160905,0.00132171
525,21.0401,-0.0155463,0.00131948
526,21.0801,-0.014912,0.00132442
527,21.1201,-0.0141859,0.00133624
528,21.1601,-0.0133672,0.001331
529,21.2001,-0.0124601,0.00134054
530,21.2401,-0.0114705,0.00134051
531,21.2801,-0.0104045,0.00134745
532,21.3201,-0.00926828,0.0013519
533,21.3601,-0.00806774,0.00135458
534,21.4001,-0.00680896,0.00135535
535,21.4401,-0.00549799,0.00136141
536,21.4801,-0.00414088,0.00136255
537,21.5201,-0.00274372,0.00137495
538,21.5601,-0.00131391,0.00138105
539,21.6001,0.000140032,0.0013781
540,21.6401,0.00160955,0.00138451
541,21.6801,0.00308607,0.00139163
542,21.7201,0.00456105,0.00139471
543,21.7601,0.00602591,0.00139802
544,21.8001,0.00747209,0.00140333
545,21.8401,0.00889104,0.00140708
546,21.8801,0.0102742,0.00141005
547,21.9201,0.0116132,0.00141551
548,21.9601,0.0129008,0.0014258
549,22.0001,0.0141298,0.00142738
550,22.0401,0.015293,0.00142944
551,22.0801,0.0163834,0.00142959
552,22.1201,0.0173938,0.00143741
553,22.1601,0.0183171,0.00143279
554,22.2001,0.0191461,0.00144068
555,22.2401,0.0198738,0.00144299
556,22.2801,0.020493,0.00145041
557,22.3201,0.0210002,0.00144953
558,22.3601,0.0213983,0.0014486
559,22.4001,0.0216906,0.00145252
560,22.4401,0.0218807,0.00145812
561,22.4801,0.021972,0.0014589
562,22.5201,0.021968,0.00145986
563,22.5601,0.0218723,0.00146068
564,22.6001,0.0216881,0.00146349
565,22.6401,0.0214191,0.00147126
566,22.6801,0.0210687,0.00147125
567,22.7201,0.0206392,0.00147053
568,22.7601,0.020131,0.00146967
569,22.8001,0.0195446,0.00147244
570,22.8401,0.0188803,0.00147768
571,22.8801,0.0181383,0.0014749
572,22.9201,0.0173192,0.00147116
573,22.9601,0.0164231,0.00147524
574,23.0001,0.0154505,0.00147784
575,23.0401,0.0144018,0.00148104
576,23.0801,0.0132771,0.00147912
577,23.1201,0.0120802,0.00147484
578,23.1602,0.0108223,0.00147177
579,23.2002,0.00951602,0.00147332
580,23.2402,0.00817395,0.00147894
581,23.2802,0.00680866,0.00148086
582,23.3202,0.00543274,0.00148023
583,23.3602,0.00405876,0.00147778
584,23.4002,0.00269931,0.0014819
585,23.4402,0.00136697,0.00148326
586,23.4802,7.43182e-05,0.00148225
587,23.5202,-0.00116691,0.00147859
588,23.5602,-0.00235219,0.00147925
589,23.6002,-0.00348065,0.00148002
590,23.6402,-0.00455146,0.00148498
591,23.6802,-0.00556377,0.00148127
592,23.7202,-0.00651673,0.00148536
593,23.7602,-0.00740952,0.00148283
594,23.8002,-0.00824129,0.00147998
595,23.8402,-0.0090112,0.00148135
596,23.8802,-0.00971841,0.00148753
597,23.9202,-0.0103621,0.00148312
598,23.9602,-0.0109413,0.00148059
599,24.0002,-0.0114549,0.0014859
600,24.0402,-0.0119019,0.00148713
601,24.0802,-0.012281,0.00148812
602,24.1202,-0.012591,0.00149077
603,24.1602,-0.012831,0.00149085
604,24.2002,-0.0129996,0.00148956
605,24.2402,-0.0130958,0.00148773
606,24.2802,-0.0131183,0.00149357
607,24.3202,-0.0130662,0.0014999
608,24.3602,-0.0129381,0.0014986
609,24.4002,-0.0127343,0.00150201
610,24.4402,-0.0124577,0.00150419
611,24.4802,-0.0121116,0.00150364
612,24.5202,-0.0116992,0.00150375
613,24.5602,-0.0112239,0.00150713
614,24.6002,-0.010689,0.00151548
615,24.6402,-0.0100978,0.00151877
616,24.6802,-0.00945351,0.00152035
617,24.7202,-0.00875948,0.00151767
618,24.7602,-0.008019,0.00152176
619,24.8002,-0.00723538,0.00152794
620,24.8402,-0.00641203,0.00153116
621,24.8802,-0.00555287,0.0015281
622,24.9202,-0.00466192,0.00153611
623,24.9602,-0.00374318,0.0015429
624,25.0002,-0.00280066,0.00154523
625,25.0402,-0.00183838,0.00154718
626,25.0802,-0.000860348,0.00155334
627,25.1202,0.000129426,0.00155748
628,25.1602,0.00112693,0.00156196
629,25.2002,0.00212815,0.00156336
630,25.2402,0.00312907,0.00155736
631,25.2802,0.00412563,0.00156282
632,25.3202,0.00511288,0.00156858
633,25.3602,0.00608521,0.00157865
634,25.4002,0.00703701,0.00158513
635,25.4402,0.00796266,0.00158253
636,25.4802,0.00885654,0.00159165
637,25.5202,0.00971304,0.00159428
638,25.5602,0.0105265,0.00159176
639,25.6002,0.0112914,0.00159099
640,25.6402,0.012002,0.00159869
641,25.6802,0.0126528,0.00159932
642,25.7202,0.0132381,0.0015998
643,25.7602,0.0137533,0.00161112
644,25.8002,0.0141986,0.00161145
645,25.8402,0.0145764,0.0016136
646,25.8802,0.0148888,0.00161793
647,25.9202,0.015138,0.00162089
648,25.9602,0.0153262,0.00162897
649,26.0002,0.0154555,0.00162471
650,26.0402,0.0155283,0.00162689
651,26.0802,0.0155466,0.00163303
652,26.1202,0.0155127,0.00164399
653,26.1602,0.0154287,0.00163188
654,26.2002,0.0152969,0.00163183
655,26.2402,0.0151191,0.00163692
656,26.2802,0.0148951,0.00163956
657,26.3202,0.0146238,0.00164821
658,26.3602,0.0143043,0.00164833
659,26.4002,0.0139356,0.00164707
660,26.4402,0.0135167,0.00164411
661,26.4802,0.0130465,0.00164979
662,26.5202,0.0125242,0.00164836
663,26.5602,0.0119486,0.00165042
664,26.6002,0.0113188,0.00165009
665,26.6402,0.0106339,0.0016449
666,26.6802,0.00989268,0.0016486
667,26.7202,0.00909455,0.00165178
668,26.7602,0.00824381,0.00165173
669,26.8002,0.00734949,0.00166079
670,26.8402,0.00642076,0.00165889
671,26.8802,0.00546682,0.00165629
672,26.9202,0.00449686,0.00165332
673,26.9602,0.00352007,0.0016554
674,27.0002,0.00254564,0.00166263
675,27.0402,0.00158277,0.00166351
676,27.0802,0.000640632,0.00165836
677,27.1202,-0.000271569,0.00165641
678,27.1602,-0.00114465,0.00165843
679,27.2002,-0.00196941,0.00165922
680,27.2402,-0.00273792,0.00165358
681,27.2802,-0.0034496,0.00166026
682,27.3202,-0.00410655,0.00166256
683,27.3602,-0.0047109,0.00166264
684,27.4002,-0.00526477,0.00166684
685,27.4402,-0.00577026,0.00166761
686,27.4802,-0.0062295,0.00167001
687,27.5203,-0.0066446,0.00167585
688,27.5603,-0.00701768,0.00167475
689,27.6003,-0.00735086,0.00167773
690,27.6403,-0.00764625,0.00168326
691,27.6803,-0.00790598,0.001681
692,27.7203,-0.00813215,0.00167746
693,27.7603,-0.00832641,0.00167831
694,27.8003,-0.00848757,0.00168207
695,27.8403,-0.00861342,0.00168527
696,27.8803,-0.00870173,0.00168544
697,27.9203,-0.00875028,0.00169029
698,27.9603,-0.00875686,0.00169523
699,28.0003,-0.00871924,0.00173205
700,28.0403,-0.0086352,0.00173404
701,28.0803,-0.00850252,0.00174386
702,28.1203,-0.00831897,0.00174997
703,28.1603,-0.00808235,0.00175146
704,28.2003,-0.00779043,0.001752
705,28.2403,-0.00744098,0.00175687
706,28.2803,-0.00703195,0.00176256
707,28.3203,-0.00656496,0.00176398
708,28.3603,-0.00604517,0.00176289
709,28.4003,-0.00547787,0.00177058
710,28.4403,-0.00486838,0.00177331
711,28.4803,-0.00422201,0.00177677
712,28.5203,-0.00354406,0.00177945
713,28.5603,-0.00283984,0.001781
714,28.6003,-0.00211466,0.00178317
715,28.6403,-0.00137381,0.00178938
716,28.6803,-0.000622613,0.00180297
717,28.7203,0.000133629,0.00180507
718,28.7603,0.000889609,0.00180424
719,28.8003,0.00164002,0.00181226
720,28.8403,0.00237983,0.00181528
721,28.8803,0.00310612,0.00181815
722,28.9203,0.00381699,0.00182306
723,28.9603,0.00451056,0.00182484
724,29.0003,0.00518492,0.00182763
725,29.0403,0.00583818,0.00183175
726,29.0803,0.00646845,0.00183184
727,29.1203,0.00707383,0.00183374
728,29.1603,0.00765242,0.00184405
729,29.2003,0.00820235,0.00184345
730,29.2403,0.0087217,0.00184644
731,29.2803,0.00920858,0.00185875
732,29.3203,0.00966111,0.0018599
733,29.3603,0.0100774,0.00186345
734,29.4003,0.0104555,0.00187482
735,29.4403,0.0107939,0.00187565
736,29.4803,0.0110912,0.00187211
737,29.5203,0.0113457,0.0018718
738,29.5603,0.0115562,0.00187592
739,29.6003,0.0117212,0.00187614
740,29.6403,0.0118392,0.00187867
741,29.6803,0.0119089,0.00188756
742,29.7203,0.0119286,0.00188695
743,29.7603,0.0118971,0.00188426
744,29.8003,0.0118128,0.00189502
745,29.8403,0.0116744,0.00189777
746,29.8803,0.0114803,0.0019005
747,29.9203,0.0112292,0.00189974
748,29.9603,0.0109195,0.00190288
749,30.0003,0.0105515,0.00191101
750,30.0403,0.0101294,0.00190142
751,30.0803,0.00965861,0.00190354
752,30.1203,0.00914415,0.00190915
753,30.1603,0.00859126,0.00190866
754,30.2003,0.0080051,0.00190859
755,30.2403,0.00739085,0.00190911
756,30.2803,0.0067537,0.00190643
757,30.3203,0.00609882,0.0019093
758,30.3603,0.00543139,0.00191532
759,30.4003,0.0047566,0.00191101
760,30.4403,0.00407961,0.00190879
761,30.4803,0.00340561,0.0019058
762,30.5203,0.00273979,0.00190837
763,30.5603,0.0020873,0.00190886
764,30.6003,0.00145222,0.00191393
765,30.6403,0.000835799,0.00191755
766,30.6803,0.000238825,0.00191891
767,30.7203,-0.000337897,0.00191629
768,30.7603,-0.00089357,0.00192235
769,30.8003,-0.00142739,0.00192566
770,30.8403,-0.00193857,0.00192918
771,30.8803,-0.00242629,0.00192815
772,30.9203,-0.00288977,0.0019274
773,30.9603,-0.0033282,0.00192725
774,31.0003,-0.00374078,0.00192544
775,31.0403,-0.00412672,0.00191815
776,31.0803,-0.0044852,0.00192777
777,31.1203,-0.00481545,0.00193262
778,31.1603,-0.00511664,0.0019429
779,31.2003,-0.00538801,0.00193655
780,31.2403,-0.00562889,0.00193411
781,31.2803,-0.00583871,0.00193821
782,31.3203,-0.00601689,0.00193169
783,31.3603,-0.00616285,0.00192822
784,31.4003,-0.006276,0.00194618
785,31.4403,-0.00635577,0.00194725
786,31.4803,-0.00640158,0.00195104
787,31.5203,-0.00641285,0.00195495
788,31.5603,-0.006389,0.00195489
789,31.6003,-0.00632945,0.00194764
790,31.6403,-0.00623361,0.00195146
791,31.6803,-0.00610092,0.00195666
792,31.7203,-0.00593079,0.00196164
793,31.7603,-0.00572264,0.00196212
794,31.8003,-0.00547589,0.00196614
795,31.8403,-0.00519028,0.00197095
796,31.8804,-0.00486767,0.00197382
797,31.9204,-0.00451075,0.00197409
798,31.9604,-0.00412223,0.00197353
799,32.0004,-0.00370482,0.00197716
800,32.0404,-0.00326119,0.00197625
801,32.0804,-0.00279404,0.00198014
802,32.1204,-0.00230609,0.00198338
803,32.1604,-0.00180003,0.00198949
804,32.2004,-0.00127856,0.00199602
805,32.2404,-0.000744372,0.00200617
806,32.2804,-0.000200179,0.00200242
807,32.3204,0.000351327,0.00199326
808,32.3604,0.000907445,0.00200002
809,32.4004,0.00146548,0.00200597
810,32.4404,0.00202272,0.00201441
811,32.4804,0.00257648,0.00201925
812,32.5204,0.00312416,0.00201816
813,32.5604,0.00366328,0.00201852
814,32.6004,0.00419135,0.00202141
815,32.6404,0.00470591,0.00202483
816,32.6804,0.00520447,0.00203228
817,32.7204,0.00568456,0.00203979
818,32.7604,0.00614369,0.00205263
819,32.8004,0.0065794,0.00204971
820,32.8404,0.0069892,0.00204635
821,32.8804,0.00737062,0.00204332
822,32.9204,0.00772118,0.00204522
823,32.9604,0.0080384,0.00205968
824,33.0004,0.00831981,0.00205691
825,33.0404,0.00856292,0.00205196
826,33.0804,0.00876526,0.00205063
827,33.1204,0.00892436,0.00205344
828,33.1604,0.00903784,0.00206379
829,33.2004,0.00910555,0.00206995
830,33.2404,0.00912944,0.0020754
831,33.2804,0.00911155,0.00207041
832,33.3204,0.0090539,0.00207348
833,33.3604,0.00895854,0.0020734
834,33.4004,0.00882748,0.00208101
835,33.4404,0.00866276,0.00208616
836,33.4804,0.00846642,0.00209171
837,33.5204,0.00824048,0.00208761
838,33.5604,0.00798698,0.0020813
839,33.6004,0.00770795,0.00208845
840,33.6404,0.00740542,0.00208797
841,33.6804,0.00708143,0.00208494
842,33.7204,0.00673799,0.00208249
843,33.7604,0.00637716,0.00209065
844,33.8004,0.00600095,0.00209489
845,33.8404,0.00561141,0.00209796
846,33.8804,0.00521044,0.00209573
847,33.9204,0.00479957,0.00209543
848,33.9604,0.00438024,0.0021074
849,34.0004,0.00395388,0.00210048
850,34.0404,0.00352192,0.0020945
851,34.0804,0.00308581,0.0020914
852,34.1204,0.00264698,0.00208592
853,34.1604,0.00220686,0.00208872
854,34.2004,0.00176688,0.00209611
855,34.2404,0.00132849,0.00210863
856,34.2804,0.000893122,0.00211152
857,34.3204,0.000462204,0.00211363
858,34.3604,3.71757e-05,0.00210948
859,34.4004,-0.000380528,0.00210967
860,34.4404,-0.000789472,0.00210602
861,34.4804,-0.00118822,0.00210614
862,34.5204,-0.00157534,0.00210225
863,34.5604,-0.00194939,0.00210071
864,34.6004,-0.00230897,0.00210352
865,34.6404,-0.00265277,0.00211389
866,34.6804,-0.00297952,0.00211928
867,34.7204,-0.00328794,0.00212074
868,34.7604,-0.00357676,0.00211463
869,34.8004,-0.0038447,0.00211126
870,34.8404,-0.00409049,0.0021177
871,34.8804,-0.00431286,0.00211722
872,34.9204,-0.00451054,0.00212912
873,34.9604,-0.00468224,0.00212852
874,35.0004,-0.00482669,0.00210803
875,35.0404,-0.00494263,0.00211393
876,35.0804,-0.00502877,0.0021271
877,35.1204,-0.00508384,0.00213881
878,35.1604,-0.00510656,0.00214383
879,35.2004,-0.00509567,0.00213936
880,35.2404,-0.00504989,0.00214128
881,35.2804,-0.00496794,0.00215659
882,35.3204,-0.00484857,0.0021536
883,35.3604,-0.00469188,0.00214099
884,35.4004,-0.00450027,0.00214195
885,35.4404,-0.00427637,0.00214672
886,35.4804,-0.00402279,0.00216333
887,35.5204,-0.00374217,0.00216987
888,35.5604,-0.00343712,0.00216903
889,35.6004,-0.00311026,0.00217122
890,35.6404,-0.00276423,0.00217429
891,35.6804,-0.00240163,0.00217469
892,35.7204,-0.00202511,0.00217371
893,35.7604,-0.00163727,0.00217814
894,35.8004,-0.00124074,0.00218607
895,35.8404,-0.000838151,0.00217713
896,35.8804,-0.000432116,0.00217235
897,35.9204,-2.5262e-05,0.00219626
898,35.9604,0.000379789,0.00220019
899,36.0004,0.000780413,0.0022045
900,36.0404,0.00117399,0.00220366
901,36.0804,0.00155789,0.00220229
902,36.1204,0.00192977,0.00220679
903,36.1604,0.00228851,0.00221389
904,36.2004,0.00263331,0.00220927
905,36.2404,0.00296338,0.00220753
906,36.2804,0.00327793,0.00221747
907,36.3204,0.00357616,0.00221887
908,36.3605,0.00385729,0.00222434
909,36.4005,0.00412052,0.00222315
910,36.4405,0.00436505,0.00222143
911,36.4805,0.00459011,0.00222836
912,36.5205,0.00479488,0.00232343
913,36.5605,0.0049786,0.00232115
914,36.6005,0.00514045,0.00232081
915,36.6405,0.00527965,0.00233394
916,36.6805,0.00539541,0.00233852
917,36.7205,0.00548693,0.0023441
918,36.7605,0.00555342,0.00234315
919,36.8005,0.0055941,0.00234351
920,36.8405,0.00560816,0.00234385
921,36.8805,0.00559482,0.00234126
922,36.9205,0.00555357,0.00234899
923,36.9605,0.00548525,0.00235776
924,37.0005,0.00539111,0.00249231
925,37.0405,0.00527238,0.00248709
926,37.0805,0.0051303,0.00249107
927,37.1205,0.00496613,0.00249262
928,37.1605,0.00478109,0.00249491
929,37.2005,0.00457643,0.00249472
930,37.2405,0.00435339,0.00251033
931,37.2805,0.00411322,0.00250984
932,37.3205,0.00385714,0.00250563
933,37.3605,0.00358641,0.00250494
934,37.4005,0.00330227,0.00250498
935,37.4405,0.00300595,0.00250553
936,37.4805,0.0026987,0.0025078
937,37.5205,0.00238175,0.00251098
938,37.5605,0.00205636,0.00251556
939,37.6005,0.00172376,0.00251748
940,37.6405,0.00138518,0.00251878
941,37.6805,0.00104188,0.00251592
942,37.7205,0.000695098,0.00251403
943,37.7605,0.000346157,0.00251574
944,37.8005,-3.40908e-06,0.0025156
945,37.8405,-0.00035204,0.00252894
946,37.8805,-0.000698176,0.00253026
947,37.9205,-0.00104026,0.00252438
948,37.9605,-0.00137672,0.00252451
949,38.0005,-0.00170602,0.00253757
950,38.0405,-0.00202658,0.0025372
951,38.0805,-0.00233684,0.00253877
952,38.1205,-0.00263526,0.0025367
953,38.1605,-0.00292026,0.00253227
954,38.2005,-0.00319029,0.00254123
955,38.2405,-0.00344379,0.00256034
956,38.2805,-0.00367919,0.00255977
957,38.3205,-0.00389494,0.00255935
958,38.3605,-0.00408949,0.00255974
959,38.4005,-0.00426126,0.00256017
960,38.4405,-0.0044087,0.00256343
961,38.4805,-0.00453025,0.00256599
962,38.5205,-0.00462435,0.0025559
963,38.5605,-0.00468945,0.00254958
964,38.6005,-0.00472412,0.00255427
965,38.6405,-0.00472873,0.00255628
966,38.6805,-0.0047048,0.00256914
967,38.7205,-0.00465384,0.00257344
968,38.7605,-0.0045774,0.00256866
969,38.8005,-0.004477,0.00256677
970,38.8405,-0.00435416,0.00256588
971,38.8805,-0.00421043,0.00256505
972,38.9205,-0.00404732,0.00257074
973,38.9605,-0.00386638,0.00257055
974,39.0005,-0.00366913,0.00257841
975,39.0405,-0.00345709,0.00257809
976,39.0805,-0.00323181,0.00258332
977,39.1205,-0.0029948,0.00258316
978,39.1605,-0.00274761,0.00260178
979,39.2005,-0.00249175,0.00260129
980,39.2405,-0.00222877,0.00261038
981,39.2805,-0.00196018,0.00261048
982,39.3205,-0.00168752,0.0026221
983,39.3605,-0.00141232,0.00262188
984,39.4005,-0.00113611,0.0026267
985,39.4405,-0.000860418,0.00262704
986,39.4805,-0.00058677,0.00263482
987,39.5205,-0.000316367,0.00263301
988,39.5605,-4.98794e-05,0.00262603
989,39.6005,0.00021207,0.0026268
990,39.6405,0.000468859,0.00263584
991,39.6805,0.000719865,0.00263811
992,39.7205,0.000964465,0.00265204
993,39.7605,0.00120204,0.0026526
994,39.8005,0.00143196,0.00265899
995,39.8405,0.00165361,0.00265861
996,39.8805,0.00186636,0.00266072
997,39.9205,0.0020696,0.00266126
998,39.9605,0.00226269,0.00266808
999,40.0005,0.00244502,0.00266833
1000,40.0405,0.00261597,0.00267346
1001,40.0805,0.00277491,0.00267367
1002,40.1205,0.00292122,0.00267887
1003,40.1605,0.00305428,0.00267755
1004,40.2005,0.00317346,0.00267375
1005,40.2405,0.00327814,0.00267458
1006,40.2805,0.00336771,0.00268665
1007,40.3205,0.00344153,0.00268664
1008,40.3605,0.00349898,0.0026949
1009,40.4005,0.00353945,0.00269439
1010,40.4405,0.00356257,0.00270062
1011,40.4805,0.00356873,0.00269976
1012,40.5205,0.00355848,0.00270328
1013,40.5605,0.00353238,0.00270244
1014,40.6005,0.00349096,0.00269819
1015,40.6405,0.00343478,0.00269729
1016,40.6805,0.00336439,0.00270388
1017,40.7206,0.00328032,0.00270338
1018,40.7606,0.00318313,0.00271893
1019,40.8006,0.00307337,0.00272021
1020,40.8406,0.00295158,0.00272409
1021,40.8806,0.00281831,0.00272413
1022,40.9206,0.0026741,0.0027173
1023,40.9606,0.00251951,0.00271495
1024,41.0006,0.00235508,0.00273275
1025,41.0406,0.00218136,0.00273867
1026,41.0806,0.00199889,0.00273431
1027,41.1206,0.00180823,0.00273178
1028,41.1606,0.00160992,0.00272308
1029,41.2006,0.0014045,0.00271693
1030,41.2406,0.00119253,0.00272574
1031,41.2806,0.000974552,0.00273273
1032,41.3206,0.000751113,0.00273374
1033,41.3606,0.00052276,0.00273506
1034,41.4006,0.000290122,0.00273376
1035,41.4406,5.42007e-05,0.00273229
1036,41.4806,-0.000183888,0.00273847
1037,41.5206,-0.000423029,0.00275448
1038,41.5606,-0.000662108,0.00275608
1039,41.6006,-0.00090001,0.00276399
1040,41.6406,-0.00113562,0.00276303
1041,41.6806,-0.00136782,0.00276134
1042,41.7206,-0.00159551,0.00276017
1043,41.7606,-0.00181755,0.00275018
1044,41.8006,-0.00203285,0.0027494
1045,41.8406,-0.00224028,0.00275919
1046,41.8806,-0.00243872,0.00275913
1047,41.9206,-0.00262708,0.00275195
1048,41.9606,-0.00280422,0.00274986
1049,42.0006,-0.00296904,0.0027673
1050,42.0406,-0.00312041,0.00277405
1051,42.0806,-0.00325723,0.00277351
1052,42.1206,-0.00337839,0.00277289
1053,42.1606,-0.00348275,0.00277718
1054,42.2006,-0.00356922,0.00278179
1055,42.2406,-0.00363667,0.00278955
1056,42.2806,-0.003684,0.00280258
1057,42.3206,-0.00371008,0.0028001
1058,42.3606,-0.0037138,0.00279359
1059,42.4006,-0.00369427,0.00279218
1060,42.4406,-0.00365219,0.00278627
1061,42.4806,-0.00358895,0.00278551
1062,42.5206,-0.00350595,0.00279591
1063,42.5606,-0.00340457,0.0027954
1064,42.6006,-0.00328623,0.00280808
1065,42.6406,-0.00315231,0.00280985
1066,42.6806,-0.0030042,0.0028074
1067,42.7206,-0.00284332,0.00280591
1068,42.7606,-0.00267104,0.00280706
1069,42.8006,-0.00248877,0.00280795
1070,42.8406,-0.0022979,0.00280976
1071,42.8806,-0.00209983,0.00281271
1072,42.9206,-0.00189595,0.00281697
1073,42.9606,-0.00168766,0.00283134
1074,43.0006,-0.00147635,0.00283108
1075,43.0406,-0.00126343,0.00283439
1076,43.0806,-0.00105028,0.00283363
1077,43.1206,-0.000838302,0.00283888
1078,43.1606,-0.000628892,0.00283864
1079,43.2006,-0.000423444,0.0028387
1080,43.2406,-0.000223356,0.00283821
1081,43.2806,-3.00218e-05,0.00286426
1082,43.3206,0.000155163,0.00288113
1083,43.3606,0.000330801,0.0028708
1084,43.4006,0.000495498,0.0028575
1085,43.4406,0.000647925,0.00285939
1086,43.4806,0.00078767,0.00286674
1087,43.5206,0.000914984,0.0028664
1088,43.5606,0.00103014,0.00287234
1089,43.6006,0.0011334,0.00287158
1090,43.6406,0.00122503,0.00288377
1091,43.6806,0.00130531,0.00288513
1092,43.7206,0.00137449,0.00289118
1093,43.7606,0.00143286,0.00289406
1094,43.8006,0.00148067,0.00289033
1095,43.8406,0.00151819,0.00288577
1096,43.8806,0.0015457,0.0028865
1097,43.9206,0.00156345,0.00289027
1098,43.9606,0.00157173,0.00289124
1099,44.0006,0.00157079,0.00291602
1100,44.0406,0.0015609,0.00291526
1101,44.0806,0.00154234,0.00291284
1102,44.1206,0.00151537,0.00291175
1103,44.1606,0.00148025,0.00291322
1104,44.2006,0.00143726,0.0029139
1105,44.2406,0.00138666,0.00291414
1106,44.2806,0.00132873,0.00291501
1107,44.3206,0.00126372,0.0029181
1108,44.3606,0.00119191,0.00293577
1109,44.4006,0.00111357,0.00293502
1110,44.4406,0.00102896,0.00292506
1111,44.4806,0.000938351,0.00292371
1112,44.5206,0.000842013,0.00291961
1113,44.5606,0.000740299,0.00291745
1114,44.6006,0.000633698,0.00291773
1115,44.6406,0.000522715,0.00291832
1116,44.6806,0.000407851,0.00292159
1117,44.7206,0.00028961,0.00293446
1118,44.7606,0.000168495,0.00293375
1119,44.8006,4.50092e-05,0.00292279
1120,44.8406,-8.03439e-05,0.00292162
1121,44.8806,-0.000207062,0.00293295
1122,44.9206,-0.00033464,0.00293686
1123,44.9606,-0.000462578,0.0029414
1124,45.0006,-0.00059037,0.00294652
1125,45.0406,-0.000717514,0.00294499
1126,45.0807,-0.000843507,0.00294087
1127,45.1207,-0.000967846,0.00294019
1128,45.1607,-0.00109003,0.002968
1129,45.2007,-0.00120955,0.00296971
1130,45.2407,-0.00132591,0.00295746
1131,45.2807,-0.0014386,0.00295079
1132,45.3207,-0.00154712,0.00295968
1133,45.3607,-0.00165096,0.00297524
1134,45.4007,-0.00174964,0.00297533
1135,45.4407,-0.00184263,0.00298287
1136,45.4807,-0.00192944,0.00298219
1137,45.5207,-0.00200956,0.0029786
1138,45.5607,-0.0020825,0.0029774
1139,45.6007,-0.00214774,0.00298108
1140,45.6407,-0.00220479,0.00298425
1141,45.6807,-0.0022532,0.00298279
1142,45.7207,-0.00229292,0.00297927
1143,45.7607,-0.00232412,0.00297861
1144,45.8007,-0.00234694,0.00300166
1145,45.8407,-0.00236152,0.00300253
1146,45.8807,-0.00236802,0.00299462
1147,45.9207,-0.00236659,0.00299017
1148,45.9607,-0.00235738,0.00299671
1149,46.0007,-0.00234053,0.00301193
1150,46.0407,-0.00231619,0.0030113
1151,46.0807,-0.00228452,0.00301326
1152,46.1207,-0.00224566,0.00301261
1153,46.1607,-0.00219976,0.00302126
1154,46.2007,-0.00214697,0.00302471
1155,46.2407,-0.00208745,0.00302557
1156,46.2807,-0.00202133,0.00302754
1157,46.3207,-0.00194877,0.00302651
1158,46.3607,-0.00186992,0.00301675
1159,46.4007,-0.00178493,0.00301611
1160,46.4407,-0.00169394,0.00302086
1161,46.4807,-0.00159711,0.00302262
1162,46.5207,-0.00149459,0.00303169
1163,46.5607,-0.00138652,0.003046
1164,46.6007,-0.00127305,0.003046
1165,46.6407,-0.00115434,0.00306186
1166,46.6807,-0.00103052,0.00306123
1167,46.7207,-0.00090176,0.00306665
1168,46.7607,-0.000768199,0.00306905
1169,46.8007,-0.000629987,0.00307203
1170,46.8407,-0.000487274,0.0030785
1171,46.8807,-0.000340309,0.00307786
1172,46.9207,-0.00018974,0.00306854
1173,46.9607,-3.63124e-05,0.00306793
1174,47.0007,0.000119227,0.00307995
1175,47.0407,0.000276132,0.00308776
1176,47.0807,0.000433656,0.0030863
1177,47.1207,0.000591055,0.00308325
1178,47.1607,0.000747581,0.00308264
1179,47.2007,0.000902488,0.00308338
1180,47.2407,0.00105503,0.00308297
1181,47.2807,0.00120446,0.00308572
1182,47.3207,0.00135004,0.00308844
1183,47.3607,0.00149101,0.00308947
1184,47.4007,0.00162663,0.003101
1185,47.4407,0.00175616,0.00310041
1186,47.4807,0.00187884,0.00309989
1187,47.5207,0.00199394,0.00309936
1188,47.5607,0.00210071,0.00311106
1189,47.6007,0.00219839,0.00313128
1190,47.6407,0.00228625,0.00313069
1191,47.6807,0.00236354,0.0031298
1192,47.7207,0.00242951,0.0031292
1193,47.7607,0.00248341,0.00312688
1194,47.8007,0.00252451,0.00312509
1195,47.8407,0.00255204,0.00312502
1196,47.8807,0.00256528,0.00312737
1197,47.9207,0.00256346,0.00312681
1198,47.9607,0.00254586,0.00314424
1199,48.0007,0.00251171,0.00314936
1200,48.0407,0.00246027,0.00314938
1201,48.0807,0.0023908,0.00314993
1202,48.1207,0.00230276,0.00314937
1203,48.1607,0.00219697,0.00317227
1204,48.2007,0.00207483,0.00317441
1205,48.2407,0.00193776,0.00317716
1206,48.2807,0.00178714,0.00318024
1207,48.3207,0.00162439,0.00317932
1208,48.3607,0.00145091,0.00317134
1209,48.4007,0.00126809,0.00317079
1210,48.4407,0.00107734,0.00316316
1211,48.4807,0.000880062,0.00315824
1212,48.5207,0.000677661,0.00315928
1213,48.5607,0.000471536,0.00316476
1214,48.6007,0.000263091,0.00316424
1215,48.6407,5.37271e-05,0.00317123
1216,48.6807,-0.000155153,0.00317319
1217,48.7207,-0.000362146,0.00317164
1218,48.7607,-0.000565851,0.00316854
1219,48.8007,-0.000764865,0.00316803
1220,48.8407,-0.000957785,0.00318315
1221,48.8807,-0.00114321,0.00318514
1222,48.9207,-0.00131974,0.00318845
1223,48.9607,-0.00148596,0.00319444
1224,49.0007,-0.00164049,0.00319394
1225,49.0407,-0.00178191,0.00318008
1226,49.0807,-0.00190882,0.00317861
1227,49.1207,-0.00201982,0.00318635
1228,49.1607,-0.00211351,0.00319487
1229,49.2007,-0.00218849,0.00319442
1230,49.2407,-0.00224335,0.00319563
1231,49.2807,-0.00227669,0.00319515
1232,49.3207,-0.0022871,0.00320196
1233,49.3607,-0.0022732,0.00320918
1234,49.4007,-0.00223357,0.00320873
1235,49.4408,-0.00216681,0.0032142
1236,49.4808,-0.00207152,0.00321373
1237,49.5208,-0.0019463,0.00320052
1238,49.5608,-0.00178974,0.00319028
1239,49.6008,-0.00160045,0.00319382
1240,49.6408,-0.00137701,0.00325174
1241,49.6808,-0.00111803,0.00325128
1242,49.7208,-0.000822111,0.00324186
1243,49.7608,-0.000487841,0.00323415
1244,49.8008,-0.000113823,0.00323415
1245,49.8408,0.000301347,0.00324987
1246,49.8808,0.000759071,0.00324942
1247,49.9208,0.00126075,0.00325221
1248,49.9608,0.00180779,4608.38