File: data/xrd_measurements/GeO2/T_of_r.csv
,r,T
0,1e-05,0.0
1,0.01,0.0
2,0.02,0.0
3,0.03,0.0
4,0.04,0.0
5,0.05,0.0
6,0.06,0.0
7,0.07,0.0
8,0.08,0.0
9,0.09,0.0
10,0.1,0.0
11,0.11,0.0
12,0.12,0.0
13,0.13,0.0
14,0.14,0.0
15,0.15,0.0
16,0.16,0.0
17,0.17,0.0
18,0.18,0.0
19,0.19,0.0
20,0.2,0.0
21,0.21,0.0
22,0.22,0.0
23,0.23,0.0
24,0.24,0.0
25,0.25,0.0
26,0.26,0.0
27,0.27,0.0
28,0.28,0.0
29,0.29,0.0
30,0.3,0.0
31,0.31,0.0
32,0.32,0.0
33,0.33,0.0
34,0.34,0.0
35,0.35,0.0
36,0.36,0.0
37,0.37,0.0
38,0.38,0.0
39,0.39,0.0
40,0.4,0.0
41,0.41,0.0
42,0.42,0.0
43,0.43,0.0
44,0.44,0.0
45,0.45,0.0
46,0.46,0.0
47,0.47,0.0
48,0.48,0.0
49,0.49,0.0
50,0.5,0.0
51,0.51,0.0
52,0.52,0.0
53,0.53,0.0
54,0.54,0.0
55,0.55,0.0
56,0.56,0.0
57,0.57,0.0
58,0.58,0.0
59,0.59,0.0
60,0.6,0.0
61,0.61,0.0
62,0.62,0.0
63,0.63,0.0
64,0.64,0.0
65,0.65,0.0
66,0.66,0.0
67,0.67,0.0
68,0.68,0.0
69,0.69,0.0
70,0.7,0.0
71,0.71,0.0
72,0.72,0.0
73,0.73,0.0
74,0.74,0.0
75,0.75,0.0
76,0.76,0.0
77,0.77,0.0
78,0.78,0.0
79,0.79,0.0
80,0.8,0.0
81,0.81,0.0
82,0.82,0.0
83,0.83,0.0
84,0.84,0.0
85,0.85,0.0
86,0.86,0.0
87,0.87,0.0
88,0.88,0.0
89,0.89,0.0
90,0.9,0.0
91,0.91,0.0
92,0.92,0.0
93,0.93,0.0
94,0.94,0.0
95,0.95,0.0
96,0.96,0.0
97,0.97,0.0
98,0.98,0.0
99,0.99,0.0
100,1.0,0.0
101,1.01,0.0
102,1.02,0.0
103,1.03,0.0
104,1.04,0.0
105,1.05,0.0
106,1.06,0.0
107,1.07,0.0
108,1.08,0.0
109,1.09,0.0
110,1.1,0.0
111,1.11,0.0
112,1.12,0.0
113,1.13,0.0
114,1.14,0.0
115,1.15,0.0
116,1.16,0.0
117,1.17,0.0
118,1.18,0.0
119,1.19,0.0
120,1.2,0.0
121,1.21,0.0
122,1.22,0.0
123,1.23,0.0
124,1.24,0.0
125,1.25,0.0
126,1.26,0.0
127,1.27,0.0
128,1.28,0.0
129,1.29,0.0
130,1.3,0.0
131,1.31,0.0
132,1.32,0.0
133,1.33,0.0
134,1.34,0.0
135,1.35,0.0
136,1.36,0.0
137,1.37,0.0
138,1.38,0.0
139,1.39,0.0
140,1.4,0.0
141,1.41,0.0
142,1.42,0.0
143,1.43,0.0
144,1.44,0.0
145,1.45,0.0
146,1.46,0.0
147,1.47,0.0
148,1.48,0.0
149,1.49,0.0
150,1.5,0.0169123
151,1.51,0.0295766
152,1.52,0.0426511
153,1.53,0.0551879
154,1.54,0.0665968
155,1.55,0.0771812
156,1.56,0.0886863
157,1.57,0.104756
158,1.58,0.131179
159,1.59,0.17581
160,1.6,0.24812
161,1.61,0.358328
162,1.62,0.516199
163,1.63,0.729603
164,1.64,1.00302
165,1.65,1.33621
166,1.66,1.72321
167,1.67,2.15196
168,1.68,2.60458
169,1.69,3.05834
170,1.7,3.48739
171,1.71,3.86494
172,1.72,4.16576
173,1.73,4.36867
174,1.74,4.4587
175,1.75,4.42866
176,1.76,4.28001
177,1.77,4.02267
178,1.78,3.67411
179,1.79,3.25752
180,1.8,2.79959
181,1.81,2.32789
182,1.82,1.86835
183,1.83,1.44314
184,1.84,1.06902
185,1.85,0.756465
186,1.86,0.509543
187,1.87,0.326503
188,1.88,0.200888
189,1.89,0.123027
190,1.9,0.0816499
191,1.91,0.0653912
192,1.92,0.0640219
193,1.93,0.0693035
194,1.94,0.0753946
195,1.95,0.0788497
196,1.96,0.0782986
197,1.97,0.073907
198,1.98,0.0667589
199,1.99,0.0582748
200,2.0,0.0497457
201,2.01,0.0420563
202,2.02,0.0355769
203,2.03,0.0302166
204,2.04,0.0255791
205,2.05,0.0211661
206,2.06,0.0165634
207,2.07,0.0115673
208,2.08,0.00624835
209,2.09,0.000916123
210,2.1,-0.00396401
211,2.11,-0.00787753
212,2.12,-0.0103912
213,2.13,-0.0112173
214,2.14,-0.010269
215,2.15,-0.00764698
216,2.16,-0.00359261
217,2.17,0.00157893
218,2.18,0.00753987
219,2.19,0.0140078
220,2.2,0.0207542
221,2.21,0.027597
222,2.22,0.0343684
223,2.23,0.0408667
224,2.24,0.0468248
225,2.25,0.0518935
226,2.26,0.0556681
227,2.27,0.0577281
228,2.28,0.0577102
229,2.29,0.0553945
230,2.3,0.0507579
231,2.31,0.0440131
232,2.32,0.0356124
233,2.33,0.0261838
234,2.34,0.0164678
235,2.35,0.0071882
236,2.36,-0.00103879
237,2.37,-0.00779849
238,2.38,-0.0129322
239,2.39,-0.016529
240,2.4,-0.0188867
241,2.41,-0.0204247
242,2.42,-0.0215712
243,2.43,-0.0226635
244,2.44,-0.0238489
245,2.45,-0.0250466
246,2.46,-0.0259438
247,2.47,-0.026035
248,2.48,-0.0247254
249,2.49,-0.0214097
250,2.5,-0.0155945
251,2.51,-0.00696868
252,2.52,0.0045622
253,2.53,0.0188762
254,2.54,0.0356948
255,2.55,0.0546708
256,2.56,0.0755
257,2.57,0.0980192
258,2.58,0.122296
259,2.59,0.148655
260,2.6,0.177677
261,2.61,0.210143
262,2.62,0.246928
263,2.63,0.288885
264,2.64,0.336717
265,2.65,0.390868
266,2.66,0.451443
267,2.67,0.518176
268,2.68,0.590436
269,2.69,0.667278
270,2.7,0.747516
271,2.71,0.829817
272,2.72,0.912791
273,2.73,0.995066
274,2.74,1.07534
275,2.75,1.15239
276,2.76,1.22512
277,2.77,1.2925
278,2.78,1.35356
279,2.79,1.40739
280,2.8,1.45314
281,2.81,1.49004
282,2.82,1.51742
283,2.83,1.53476
284,2.84,1.54178
285,2.85,1.53847
286,2.86,1.52512
287,2.87,1.50238
288,2.88,1.47117
289,2.89,1.43274
290,2.9,1.38854
291,2.91,1.34018
292,2.92,1.28933
293,2.93,1.23762
294,2.94,1.18663
295,2.95,1.13776
296,2.96,1.09225
297,2.97,1.05114
298,2.98,1.01524
299,2.99,0.985201
300,3.0,0.961474
301,3.01,0.944335
302,3.02,0.933893
303,3.03,0.930094
304,3.04,0.93271
305,3.05,0.941342
306,3.06,0.955416
307,3.07,0.974194
308,3.08,0.99679
309,3.09,1.0222
310,3.1,1.04934
311,3.11,1.07711
312,3.12,1.10441
313,3.13,1.13022
314,3.14,1.15363
315,3.15,1.17386
316,3.16,1.19028
317,3.17,1.20242
318,3.18,1.20996
319,3.19,1.21268
320,3.2,1.21052
321,3.21,1.20349
322,3.22,1.1917
323,3.23,1.17537
324,3.24,1.15483
325,3.25,1.1305
326,3.26,1.10294
327,3.27,1.07284
328,3.28,1.04098
329,3.29,1.00824
330,3.3,0.975539
331,3.31,0.943784
332,3.32,0.913824
333,3.33,0.886382
334,3.34,0.86201
335,3.35,0.841061
336,3.36,0.82367
337,3.37,0.809768
338,3.38,0.799108
339,3.39,0.791321
340,3.4,0.785957
341,3.41,0.782561
342,3.42,0.780711
343,3.43,0.780057
344,3.44,0.780352
345,3.45,0.781443
346,3.46,0.783264
347,3.47,0.785812
348,3.48,0.78911
349,3.49,0.793181
350,3.5,0.798029
351,3.51,0.803613
352,3.52,0.809855
353,3.53,0.816646
354,3.54,0.823855
355,3.55,0.831356
356,3.56,0.839041
357,3.57,0.846829
358,3.58,0.854677
359,3.59,0.86257
360,3.6,0.870509
361,3.61,0.878503
362,3.62,0.886549
363,3.63,0.894622
364,3.64,0.902674
365,3.65,0.910633
366,3.66,0.918422
367,3.67,0.925965
368,3.68,0.933219
369,3.69,0.940178
370,3.7,0.94689
371,3.71,0.953457
372,3.72,0.960023
373,3.73,0.966754
374,3.74,0.973815
375,3.75,0.981336
376,3.76,0.989388
377,3.77,0.997955
378,3.78,1.00693
379,3.79,1.01611
380,3.8,1.02522
381,3.81,1.03392
382,3.82,1.04186
383,3.83,1.04871
384,3.84,1.05421
385,3.85,1.05818
386,3.86,1.06056
387,3.87,1.06141
388,3.88,1.06093
389,3.89,1.05941
390,3.9,1.05723
391,3.91,1.05479
392,3.92,1.05253
393,3.93,1.05084
394,3.94,1.05005
395,3.95,1.05043
396,3.96,1.05214
397,3.97,1.05524
398,3.98,1.05975
399,3.99,1.06557
400,4.0,1.07261
401,4.01,1.08073
402,4.02,1.08982
403,4.03,1.09979
404,4.04,1.11057
405,4.05,1.12213
406,4.06,1.13448
407,4.07,1.14762
408,4.08,1.16157
409,4.09,1.17634
410,4.1,1.19187
411,4.11,1.20812
412,4.12,1.22497
413,4.13,1.24228
414,4.14,1.25993
415,4.15,1.27776
416,4.16,1.29568
417,4.17,1.31362
418,4.18,1.3316
419,4.19,1.34968
420,4.2,1.36799
421,4.21,1.38673
422,4.22,1.40609
423,4.23,1.42628
424,4.24,1.44746
425,4.25,1.46975
426,4.26,1.49317
427,4.27,1.51768
428,4.28,1.54312
429,4.29,1.56924
430,4.3,1.59576
431,4.31,1.62232
432,4.32,1.64856
433,4.33,1.6741
434,4.34,1.69862
435,4.35,1.7218
436,4.36,1.74338
437,4.37,1.76313
438,4.38,1.78086
439,4.39,1.7964
440,4.4,1.80961
441,4.41,1.82032
442,4.42,1.82837
443,4.43,1.83362
444,4.44,1.83588
445,4.45,1.83501
446,4.46,1.83088
447,4.47,1.82337
448,4.48,1.81245
449,4.49,1.79813
450,4.5,1.7805
451,4.51,1.75975
452,4.52,1.73614
453,4.53,1.71002
454,4.54,1.6818
455,4.55,1.65196
456,4.56,1.621
457,4.57,1.58947
458,4.58,1.55789
459,4.59,1.52678
460,4.6,1.49661
461,4.61,1.46782
462,4.62,1.44076
463,4.63,1.41576
464,4.64,1.39305
465,4.65,1.37283
466,4.66,1.35523
467,4.67,1.34033
468,4.68,1.32818
469,4.69,1.31878
470,4.7,1.31209
471,4.71,1.30803
472,4.72,1.3065
473,4.73,1.30733
474,4.74,1.31034
475,4.75,1.31529
476,4.76,1.32193
477,4.77,1.32999
478,4.78,1.33918
479,4.79,1.34924
480,4.8,1.3599
481,4.81,1.37096
482,4.82,1.38226
483,4.83,1.39368
484,4.84,1.40518
485,4.85,1.41675
486,4.86,1.42843
487,4.87,1.44029
488,4.88,1.45241
489,4.89,1.46486
490,4.9,1.47768
491,4.91,1.4909
492,4.92,1.50448
493,4.93,1.51836
494,4.94,1.53244
495,4.95,1.54658
496,4.96,1.56064
497,4.97,1.57444
498,4.98,1.58784
499,4.99,1.60072
500,5.0,1.61297
501,5.01,1.62453
502,5.02,1.63538
503,5.03,1.64555
504,5.04,1.65509
505,5.05,1.66408
506,5.06,1.67263
507,5.07,1.68084
508,5.08,1.68884
509,5.09,1.69671
510,5.1,1.70453
511,5.11,1.71236
512,5.12,1.72021
513,5.13,1.72808
514,5.14,1.73594
515,5.15,1.74375
516,5.16,1.75145
517,5.17,1.75898
518,5.18,1.7663
519,5.19,1.77338
520,5.2,1.7802
521,5.21,1.78676
522,5.22,1.79309
523,5.23,1.79921
524,5.24,1.80518
525,5.25,1.81102
526,5.26,1.81677
527,5.27,1.82244
528,5.28,1.82804
529,5.29,1.83355
530,5.3,1.83895
531,5.31,1.84419
532,5.32,1.84923
533,5.33,1.85403
534,5.34,1.85853
535,5.35,1.86271
536,5.36,1.86654
537,5.37,1.86999
538,5.38,1.87304
539,5.39,1.87568
540,5.4,1.87788
541,5.41,1.87962
542,5.42,1.88084
543,5.43,1.88151
544,5.44,1.88156
545,5.45,1.88093
546,5.46,1.87955
547,5.47,1.87738
548,5.48,1.87437
549,5.49,1.87049
550,5.5,1.86576
551,5.51,1.8602
552,5.52,1.85388
553,5.53,1.84692
554,5.54,1.83944
555,5.55,1.83162
556,5.56,1.82363
557,5.57,1.81569
558,5.58,1.80799
559,5.59,1.80071
560,5.6,1.79403
561,5.61,1.78808
562,5.62,1.78294
563,5.63,1.77867
564,5.64,1.77525
565,5.65,1.77262
566,5.66,1.7707
567,5.67,1.76934
568,5.68,1.76839
569,5.69,1.76768
570,5.7,1.76706
571,5.71,1.76637
572,5.72,1.7655
573,5.73,1.76438
574,5.74,1.76296
575,5.75,1.76124
576,5.76,1.75928
577,5.77,1.75714
578,5.78,1.75494
579,5.79,1.75281
580,5.8,1.75088
581,5.81,1.74929
582,5.82,1.74818
583,5.83,1.74766
584,5.84,1.74784
585,5.85,1.74878
586,5.86,1.75055
587,5.87,1.75316
588,5.88,1.75661
589,5.89,1.76087
590,5.9,1.76589
591,5.91,1.77161
592,5.92,1.77793
593,5.93,1.78475
594,5.94,1.79195
595,5.95,1.79942
596,5.96,1.80703
597,5.97,1.81466
598,5.98,1.82219
599,5.99,1.8295
600,6.0,1.8365
601,6.01,1.84309
602,6.02,1.84921
603,6.03,1.85478
604,6.04,1.85979
605,6.05,1.86422
606,6.06,1.86807
607,6.07,1.87138
608,6.08,1.87421
609,6.09,1.87661
610,6.1,1.87867
611,6.11,1.88048
612,6.12,1.88214
613,6.13,1.88373
614,6.14,1.88534
615,6.15,1.88705
616,6.16,1.88893
617,6.17,1.89101
618,6.18,1.89333
619,6.19,1.8959
620,6.2,1.89871
621,6.21,1.90174
622,6.22,1.90494
623,6.23,1.90826
624,6.24,1.91165
625,6.25,1.91505
626,6.26,1.9184
627,6.27,1.92165
628,6.28,1.92477
629,6.29,1.92771
630,6.3,1.93047
631,6.31,1.93304
632,6.32,1.93544
633,6.33,1.93767
634,6.34,1.93976
635,6.35,1.94175
636,6.36,1.94364
637,6.37,1.94547
638,6.38,1.94726
639,6.39,1.94901
640,6.4,1.95076
641,6.41,1.95251
642,6.42,1.9543
643,6.43,1.95614
644,6.44,1.95807
645,6.45,1.96014
646,6.46,1.9624
647,6.47,1.96489
648,6.48,1.96767
649,6.49,1.97079
650,6.5,1.97427
651,6.51,1.97813
652,6.52,1.98237
653,6.53,1.98696
654,6.54,1.99186
655,6.55,1.997
656,6.56,2.0023
657,6.57,2.00766
658,6.58,2.01299
659,6.59,2.01817
660,6.6,2.02309
661,6.61,2.02767
662,6.62,2.03179
663,6.63,2.03539
664,6.64,2.03838
665,6.65,2.04072
666,6.66,2.04239
667,6.67,2.04338
668,6.68,2.04373
669,6.69,2.04349
670,6.7,2.04274
671,6.71,2.04161
672,6.72,2.04022
673,6.73,2.03872
674,6.74,2.03726
675,6.75,2.03597
676,6.76,2.03499
677,6.77,2.03443
678,6.78,2.03435
679,6.79,2.03481
680,6.8,2.03582
681,6.81,2.03737
682,6.82,2.03942
683,6.83,2.04193
684,6.84,2.04484
685,6.85,2.04806
686,6.86,2.05153
687,6.87,2.05519
688,6.88,2.05897
689,6.89,2.0628
690,6.9,2.06663
691,6.91,2.07041
692,6.92,2.07406
693,6.93,2.07756
694,6.94,2.08084
695,6.95,2.08387
696,6.96,2.08661
697,6.97,2.08904
698,6.98,2.09115
699,6.99,2.09296
700,7.0,2.09448
701,7.01,2.09574
702,7.02,2.0968
703,7.03,2.09771
704,7.04,2.09852
705,7.05,2.0993
706,7.06,2.1001
707,7.07,2.10099
708,7.08,2.102
709,7.09,2.10319
710,7.1,2.10459
711,7.11,2.10623
712,7.12,2.10815
713,7.13,2.11038
714,7.14,2.11292
715,7.15,2.1158
716,7.16,2.11902
717,7.17,2.12258
718,7.18,2.12647
719,7.19,2.13066
720,7.2,2.13513
721,7.21,2.13983
722,7.22,2.14472
723,7.23,2.14974
724,7.24,2.15485
725,7.25,2.16
726,7.26,2.16514
727,7.27,2.17026
728,7.28,2.17532
729,7.29,2.18033
730,7.3,2.18529
731,7.31,2.1902
732,7.32,2.1951
733,7.33,2.2
734,7.34,2.20495
735,7.35,2.20996
736,7.36,2.21505
737,7.37,2.22025
738,7.38,2.22557
739,7.39,2.23101
740,7.4,2.23657
741,7.41,2.24225
742,7.42,2.24804
743,7.43,2.25395
744,7.44,2.25997
745,7.45,2.26611
746,7.46,2.27236
747,7.47,2.27874
748,7.48,2.28525
749,7.49,2.29191
750,7.5,2.29872
751,7.51,2.30569
752,7.52,2.31282
753,7.53,2.3201
754,7.54,2.32751
755,7.55,2.33504
756,7.56,2.34265
757,7.57,2.3503
758,7.58,2.35794
759,7.59,2.36554
760,7.6,2.37304
761,7.61,2.38038
762,7.62,2.38752
763,7.63,2.3944
764,7.64,2.40098
765,7.65,2.40723
766,7.66,2.41309
767,7.67,2.41856
768,7.68,2.4236
769,7.69,2.42821
770,7.7,2.43238
771,7.71,2.43613
772,7.72,2.43947
773,7.73,2.44243
774,7.74,2.44503
775,7.75,2.44733
776,7.76,2.44935
777,7.77,2.45116
778,7.78,2.45278
779,7.79,2.45428
780,7.8,2.4557
781,7.81,2.45708
782,7.82,2.45845
783,7.83,2.45986
784,7.84,2.46131
785,7.85,2.46283
786,7.86,2.46443
787,7.87,2.4661
788,7.88,2.46783
789,7.89,2.46962
790,7.9,2.47144
791,7.91,2.47327
792,7.92,2.4751
793,7.93,2.4769
794,7.94,2.47867
795,7.95,2.48039
796,7.96,2.48207
797,7.97,2.48372
798,7.98,2.48534
799,7.99,2.48694
800,8.0,2.48853
801,8.01,2.49013
802,8.02,2.49173
803,8.03,2.49334
804,8.04,2.49496
805,8.05,2.49658
806,8.06,2.49819
807,8.07,2.4998
808,8.08,2.50139
809,8.09,2.50298
810,8.1,2.50458
811,8.11,2.5062
812,8.12,2.50786
813,8.13,2.50959
814,8.14,2.51139
815,8.15,2.51331
816,8.16,2.51534
817,8.17,2.51749
818,8.18,2.51976
819,8.19,2.52214
820,8.2,2.5246
821,8.21,2.52713
822,8.22,2.5297
823,8.23,2.53229
824,8.24,2.53487
825,8.25,2.53741
826,8.26,2.53992
827,8.27,2.54239
828,8.28,2.5448
829,8.29,2.54719
830,8.3,2.54954
831,8.31,2.55189
832,8.32,2.55425
833,8.33,2.55664
834,8.34,2.55909
835,8.35,2.56162
836,8.36,2.56425
837,8.37,2.567
838,8.38,2.5699
839,8.39,2.57295
840,8.4,2.57619
841,8.41,2.57963
842,8.42,2.58327
843,8.43,2.58712
844,8.44,2.59119
845,8.45,2.59547
846,8.46,2.59996
847,8.47,2.60464
848,8.48,2.6095
849,8.49,2.6145
850,8.5,2.61963
851,8.51,2.62484
852,8.52,2.63011
853,8.53,2.63539
854,8.54,2.64066
855,8.55,2.64588
856,8.56,2.65103
857,8.57,2.65607
858,8.58,2.661
859,8.59,2.6658
860,8.6,2.67049
861,8.61,2.67507
862,8.62,2.67955
863,8.63,2.68396
864,8.64,2.68833
865,8.65,2.69267
866,8.66,2.69701
867,8.67,2.70138
868,8.68,2.70579
869,8.69,2.71025
870,8.7,2.71476
871,8.71,2.71934
872,8.72,2.72398
873,8.73,2.72868
874,8.74,2.73341
875,8.75,2.73819
876,8.76,2.74299
877,8.77,2.74781
878,8.78,2.75264
879,8.79,2.75747
880,8.8,2.7623
881,8.81,2.76712
882,8.82,2.77194
883,8.83,2.77675
884,8.84,2.78155
885,8.85,2.78634
886,8.86,2.79112
887,8.87,2.79587
888,8.88,2.80058
889,8.89,2.80525
890,8.9,2.80984
891,8.91,2.81435
892,8.92,2.81875
893,8.93,2.82301
894,8.94,2.82711
895,8.95,2.83104
896,8.96,2.83477
897,8.97,2.83831
898,8.98,2.84165
899,8.99,2.84478
900,9.0,2.84771
901,9.01,2.85045
902,9.02,2.853
903,9.03,2.85537
904,9.04,2.85758
905,9.05,2.85962
906,9.06,2.8615
907,9.07,2.86324
908,9.08,2.86485
909,9.09,2.86632
910,9.1,2.86769
911,9.11,2.86898
912,9.12,2.8702
913,9.13,2.87139
914,9.14,2.87259
915,9.15,2.87382
916,9.16,2.87513
917,9.17,2.87655
918,9.18,2.8781
919,9.19,2.87983
920,9.2,2.88174
921,9.21,2.88385
922,9.22,2.88619
923,9.23,2.88873
924,9.24,2.8915
925,9.25,2.89448
926,9.26,2.89765
927,9.27,2.90101
928,9.28,2.90454
929,9.29,2.90822
930,9.3,2.91201
931,9.31,2.9159
932,9.32,2.91987
933,9.33,2.92386
934,9.34,2.92786
935,9.35,2.93182
936,9.36,2.93572
937,9.37,2.93951
938,9.38,2.94315
939,9.39,2.94661
940,9.4,2.94986
941,9.41,2.95286
942,9.42,2.95559
943,9.43,2.95803
944,9.44,2.96015
945,9.45,2.96196
946,9.46,2.96345
947,9.47,2.96464
948,9.48,2.96554
949,9.49,2.96619
950,9.5,2.96662
951,9.51,2.96686
952,9.52,2.96697
953,9.53,2.96701
954,9.54,2.96701
955,9.55,2.96704
956,9.56,2.96715
957,9.57,2.96738
958,9.58,2.96778
959,9.59,2.96839
960,9.6,2.96925
961,9.61,2.97039
962,9.62,2.97182
963,9.63,2.97355
964,9.64,2.9756
965,9.65,2.97797
966,9.66,2.98063
967,9.67,2.98359
968,9.68,2.98681
969,9.69,2.99028
970,9.7,2.99398
971,9.71,2.99786
972,9.72,3.00192
973,9.73,3.00611
974,9.74,3.01043
975,9.75,3.01486
976,9.76,3.01936
977,9.77,3.02392
978,9.78,3.02854
979,9.79,3.03319
980,9.8,3.03785
981,9.81,3.04252
982,9.82,3.04716
983,9.83,3.05178
984,9.84,3.05635
985,9.85,3.06086
986,9.86,3.0653
987,9.87,3.06967
988,9.88,3.07397
989,9.89,3.07818
990,9.9,3.08233
991,9.91,3.08641
992,9.92,3.09042
993,9.93,3.09437
994,9.94,3.09828
995,9.95,3.10213
996,9.96,3.10593
997,9.97,3.10968
998,9.98,3.11337
999,9.99,3.11699
1000,10.0,3.12054