File: data-release/xrd_measurements/SiO2/F_of_Q.csv
,Q,F,dF
0,0.02,0.0,1e-7
1,0.04,0.0,1e-7
2,0.06,0.0,1e-7
3,0.08,0.0,1e-7
4,0.1,0.0,1e-7
5,0.12,0.0,1e-7
6,0.14,0.0,1e-7
7,0.16,0.0,1e-7
8,0.18,0.0,1e-7
9,0.2,0.0,1e-7
10,0.22,0.0,1e-7
11,0.24,0.0,1e-7
12,0.26,0.0,1e-7
13,0.28,0.0,1e-7
14,0.3,0.0,1e-7
15,0.32,0.0,1e-7
16,0.34,0.0,1e-7
17,0.36,0.0,1e-7
18,0.38,0.0,1e-7
19,0.4,0.0,1e-7
20,0.42,0.0,1e-7
21,0.44,0.0,1e-7
22,0.46,0.0,1e-7
23,0.48,0.0,1e-7
24,0.5,0.0,1e-7
25,0.52,-6.8844e-07,8.58927e-07
26,0.54,-0.231002,0.000497543
27,0.56,-0.228655,0.000528995
28,0.58,-0.223442,0.000534197
29,0.6,-0.221189,0.000565534
30,0.62,-0.21835,0.000580695
31,0.64,-0.214517,0.000596226
32,0.66,-0.211629,0.000639693
33,0.68,-0.206465,0.00065139
34,0.7,-0.204641,0.000689675
35,0.72,-0.200646,0.000724058
36,0.74,-0.194868,0.000729592
37,0.76,-0.192223,0.000775111
38,0.78,-0.188753,0.000784852
39,0.8,-0.183898,0.000823678
40,0.82,-0.183984,0.000881503
41,0.84,-0.179292,0.000913104
42,0.86,-0.176586,0.000981721
43,0.88,-0.173836,0.000990312
44,0.9,-0.169913,0.00103808
45,0.92,-0.170178,0.00110404
46,0.94,-0.16449,0.00112275
47,0.96,-0.160108,0.00116485
48,0.98,-0.156809,0.0012343
49,1.0,-0.148919,0.00123343
50,1.02,-0.146771,0.00131553
51,1.04,-0.136887,0.0013242
52,1.06,-0.134442,0.00137231
53,1.08,-0.125627,0.00143185
54,1.1,-0.122339,0.00147228
55,1.12,-0.110584,0.00153005
56,1.14,-0.0991978,0.00154856
57,1.16,-0.0923165,0.00162422
58,1.18,-0.0829476,0.00166502
59,1.2,-0.0711391,0.00170658
60,1.22,-0.0579386,0.00178174
61,1.24,-0.031647,0.000597703
62,1.26,-0.0169141,0.000627043
63,1.28,0.00235045,0.00064285
64,1.3,0.0186544,0.000680269
65,1.32,0.0400271,0.000701827
66,1.34,0.0560417,0.000731711
67,1.36,0.0755645,0.000759016
68,1.38,0.0918724,0.000782444
69,1.4,0.108076,0.000816993
70,1.42,0.121542,0.000844101
71,1.44,0.133555,0.000862716
72,1.46,0.143785,0.000881722
73,1.48,0.148542,0.000913033
74,1.5,0.151342,0.000923389
75,1.52,0.150701,0.000933451
76,1.54,0.149245,0.00101858
77,1.56,0.142432,0.0010279
78,1.58,0.132519,0.00104654
79,1.6,0.120644,0.0010346
80,1.62,0.110337,0.00104404
81,1.64,0.098848,0.00102812
82,1.66,0.0841016,0.0010219
83,1.68,0.0694231,0.00101739
84,1.7,0.0530031,0.00104197
85,1.72,0.043576,0.00101258
86,1.74,0.0273981,0.00102298
87,1.76,0.0168683,0.00100612
88,1.78,0.00816673,0.000990881
89,1.8,-0.00855837,0.00100606
90,1.82,-0.0184957,0.0010066
91,1.84,-0.0273444,0.000988619
92,1.86,-0.0393435,0.000973632
93,1.88,-0.0479173,0.000969004
94,1.9,-0.0558553,0.00097126
95,1.92,-0.0635824,0.000949231
96,1.94,-0.071736,0.000963852
97,1.96,-0.0771001,0.000941722
98,1.98,-0.0851342,0.000918498
99,2.0,-0.0893417,0.000950175
100,2.02,-0.0938103,0.000936267
101,2.04,-0.101283,0.000933564
102,2.06,-0.104249,0.00091339
103,2.08,-0.109629,0.000902691
104,2.1,-0.113663,0.000898169
105,2.12,-0.116541,0.000910667
106,2.14,-0.120503,0.000915157
107,2.16,-0.122249,0.000902831
108,2.18,-0.126073,0.000914797
109,2.2,-0.129821,0.000926065
110,2.22,-0.129087,0.000891419
111,2.24,-0.13507,0.000918287
112,2.26,-0.137869,0.000930637
113,2.28,-0.137893,0.000935076
114,2.3,-0.140362,0.000879564
115,2.32,-0.141435,0.000880083
116,2.34,-0.145804,0.000923355
117,2.36,-0.147062,0.000934709
118,2.38,-0.146425,0.000916395
119,2.4,-0.145075,0.000885872
120,2.42,-0.146516,0.000911465
121,2.44,-0.148291,0.000886231
122,2.46,-0.146854,0.000892889
123,2.48,-0.145534,0.000518115
124,2.5,-0.144367,0.00051302
125,2.52,-0.142552,0.000524868
126,2.54,-0.136734,0.000524733
127,2.56,-0.133844,0.000533337
128,2.58,-0.129011,0.000546229
129,2.6,-0.121484,0.000569325
130,2.62,-0.110711,0.000586477
131,2.64,-0.101081,0.000614204
132,2.66,-0.0867801,0.000619611
133,2.68,-0.0724724,0.00064222
134,2.7,-0.0556195,0.00067169
135,2.72,-0.0389674,0.000687932
136,2.74,-0.0205315,0.000716901
137,2.76,-0.00163278,0.000740553
138,2.78,0.0140088,0.000772538
139,2.8,0.0281528,0.000784101
140,2.82,0.0426918,0.000804423
141,2.84,0.0521782,0.000828136
142,2.86,0.0606913,0.000836979
143,2.88,0.0650788,0.000848821
144,2.9,0.0660478,0.000864098
145,2.92,0.0647094,0.000864971
146,2.94,0.0625848,0.000877545
147,2.96,0.0596901,0.000868977
148,2.98,0.0583063,0.000868301
149,3.0,0.0522464,0.000878584
150,3.02,0.0466251,0.000869767
151,3.04,0.041482,0.000874501
152,3.06,0.0357136,0.000880982
153,3.08,0.0297864,0.000867953
154,3.1,0.0255397,0.000868814
155,3.12,0.0184983,0.000860404
156,3.14,0.0141884,0.000867492
157,3.16,0.00968169,0.000861995
158,3.18,0.0048241,0.000863793
159,3.2,-0.000819469,0.000865916
160,3.22,-0.00630706,0.000871223
161,3.24,-0.0109962,0.000862488
162,3.26,-0.0114633,0.000853504
163,3.28,-0.0165508,0.00085781
164,3.3,-0.0175508,0.000865225
165,3.32,-0.0242772,0.000857658
166,3.34,-0.0278157,0.000863003
167,3.36,-0.030739,0.000879783
168,3.38,-0.0325504,0.000868605
169,3.4,-0.0340752,0.000869965
170,3.42,-0.0362211,0.000865178
171,3.44,-0.0396701,0.000883024
172,3.46,-0.0410707,0.000873142
173,3.48,-0.0434149,0.000883485
174,3.5,-0.0444645,0.000877878
175,3.52,-0.0459358,0.000893467
176,3.54,-0.0482743,0.000892865
177,3.56,-0.0503851,0.000904915
178,3.58,-0.0517433,0.000894487
179,3.6,-0.0503225,0.000885205
180,3.62,-0.0517318,0.000891551
181,3.64,-0.0512885,0.000896951
182,3.66,-0.0514728,0.000901552
183,3.68,-0.053507,0.000900595
184,3.7,-0.0524909,0.00091481
185,3.72,-0.0541335,0.000923428
186,3.74,-0.0525336,0.000905319
187,3.76,-0.0539541,0.000917536
188,3.78,-0.0552222,0.000939658
189,3.8,-0.056022,0.000946851
190,3.82,-0.0562791,0.000949305
191,3.84,-0.0539906,0.000942779
192,3.86,-0.0534156,0.000938627
193,3.88,-0.0525962,0.000962459
194,3.9,-0.0508062,0.000276405
195,3.92,-0.0505368,0.000277004
196,3.94,-0.0499575,0.000278505
197,3.96,-0.0492519,0.000282926
198,3.98,-0.0486042,0.000282442
199,4.0,-0.0479645,0.000284728
200,4.02,-0.0469972,0.000286015
201,4.04,-0.046481,0.000288778
202,4.06,-0.0444853,0.000289501
203,4.08,-0.0443455,0.000293821
204,4.1,-0.0430929,0.00029511
205,4.12,-0.0419468,0.000296268
206,4.14,-0.0404766,0.000300103
207,4.16,-0.0385202,0.000302537
208,4.18,-0.0374162,0.000305437
209,4.2,-0.0363597,0.000304774
210,4.22,-0.0339257,0.00030866
211,4.24,-0.0327012,0.000311849
212,4.26,-0.0310942,0.000315047
213,4.28,-0.0287854,0.000315547
214,4.3,-0.0273404,0.000317965
215,4.32,-0.0253178,0.000322063
216,4.34,-0.0240303,0.000325367
217,4.36,-0.0213479,0.000327387
218,4.38,-0.0196281,0.000329749
219,4.4,-0.018331,0.000333762
220,4.42,-0.0157363,0.000335713
221,4.44,-0.0134836,0.000340068
222,4.46,-0.011956,0.000339762
223,4.48,-0.00945423,0.000344338
224,4.5,-0.00701717,0.000348809
225,4.52,-0.00494426,0.000352032
226,4.54,-0.00302003,0.000355266
227,4.56,0.000860486,0.000357979
228,4.58,0.00327785,0.000361987
229,4.6,0.00540701,0.000366125
230,4.62,0.00990023,0.000370692
231,4.64,0.0137623,0.000371715
232,4.66,0.0170774,0.000375216
233,4.68,0.0212641,0.000382642
234,4.7,0.0256185,0.000386747
235,4.72,0.0301511,0.000389476
236,4.74,0.033972,0.000396167
237,4.76,0.0396349,0.000400001
238,4.78,0.0457554,0.000403851
239,4.8,0.052093,0.000408251
240,4.82,0.0585711,0.00041461
241,4.84,0.0649375,0.000421124
242,4.86,0.073081,0.000428192
243,4.88,0.0810805,0.000433361
244,4.9,0.0887229,0.000442421
245,4.92,0.0971189,0.000448099
246,4.94,0.106209,0.000455414
247,4.96,0.116001,0.000460882
248,4.98,0.12483,0.0004694
249,5.0,0.134112,0.000477149
250,5.02,0.143955,0.000484446
251,5.04,0.152996,0.000492023
252,5.06,0.16385,0.000496868
253,5.08,0.171784,0.000505401
254,5.1,0.18007,0.000511756
255,5.12,0.188047,0.000517242
256,5.14,0.195499,0.000522819
257,5.16,0.200849,0.000528891
258,5.18,0.206852,0.000534356
259,5.2,0.20919,0.000539278
260,5.22,0.212082,0.000540387
261,5.24,0.210993,0.000359625
262,5.26,0.210238,0.000360909
263,5.28,0.207036,0.000362212
264,5.3,0.203643,0.00036223
265,5.32,0.198563,0.000360615
266,5.34,0.191174,0.000360704
267,5.36,0.183804,0.000359117
268,5.38,0.175645,0.000358106
269,5.4,0.166318,0.000353578
270,5.42,0.155792,0.000351576
271,5.44,0.144719,0.000348986
272,5.46,0.134306,0.000346496
273,5.48,0.12335,0.000343106
274,5.5,0.112469,0.000340109
275,5.52,0.100829,0.00033694
276,5.54,0.0893983,0.000334601
277,5.56,0.080231,0.000330741
278,5.58,0.0703725,0.000326961
279,5.6,0.0593836,0.000325098
280,5.62,0.0503428,0.000320751
281,5.64,0.0413968,0.000318012
282,5.66,0.0327237,0.000315873
283,5.68,0.0243945,0.000313778
284,5.7,0.0164521,0.000312126
285,5.72,0.00964963,0.000307176
286,5.74,0.0030113,0.000306638
287,5.76,-0.00384127,0.000304934
288,5.78,-0.00897041,0.000302144
289,5.8,-0.0143014,0.000302047
290,5.82,-0.0199878,0.000302288
291,5.84,-0.0241108,0.000299417
292,5.86,-0.0282363,0.00029595
293,5.88,-0.0333454,0.000296743
294,5.9,-0.0362068,0.000293763
295,5.92,-0.0405462,0.000294185
296,5.94,-0.0430215,0.00029279
297,5.96,-0.0462401,0.000294111
298,5.98,-0.0489694,0.000293374
299,6.0,-0.0512658,0.000290764
300,6.02,-0.0537349,0.00029189
301,6.04,-0.0556343,0.000290893
302,6.06,-0.0580595,0.000292814
303,6.08,-0.0591865,0.00029311
304,6.1,-0.0610295,0.000292697
305,6.12,-0.0626486,0.000292222
306,6.14,-0.0637708,0.000291858
307,6.16,-0.0647907,0.000290973
308,6.18,-0.0659669,0.00029286
309,6.2,-0.0673958,0.000294356
310,6.22,-0.0686155,0.000295368
311,6.24,-0.0691131,0.000296281
312,6.25999,-0.0701994,0.000294495
313,6.27999,-0.0712983,0.00029445
314,6.29999,-0.0712843,0.000294392
315,6.31999,-0.072011,0.000294631
316,6.33999,-0.0728718,0.000298421
317,6.35999,-0.0731199,0.000296669
318,6.37999,-0.0739261,0.000299468
319,6.39999,-0.0742253,0.000300301
320,6.41999,-0.074405,0.00030208
321,6.43999,-0.0744683,0.000301493
322,6.45999,-0.0755132,0.000303034
323,6.47999,-0.0756384,0.000302362
324,6.49999,-0.0755288,0.000302135
325,6.51999,-0.0765617,0.000306488
326,6.53999,-0.0763716,0.000305096
327,6.55999,-0.076549,0.000307359
328,6.57999,-0.0775024,0.00030833
329,6.59999,-0.0769784,0.000311108
330,6.61999,-0.0783991,0.000312902
331,6.63999,-0.0781022,0.000310012
332,6.65999,-0.0779823,0.000308995
333,6.67999,-0.0779386,0.000310438
334,6.69999,-0.0774204,0.000310742
335,6.71999,-0.0774579,0.000312009
336,6.73999,-0.0779973,0.000313468
337,6.75999,-0.0781236,0.000317722
338,6.77999,-0.0775509,0.000314201
339,6.79999,-0.0772671,0.000315033
340,6.81999,-0.0773217,0.00032112
341,6.83999,-0.0765558,0.000319369
342,6.85999,-0.0763562,0.000319865
343,6.87999,-0.0763468,0.000323824
344,6.89999,-0.0758414,0.000322094
345,6.91999,-0.0742809,0.00032419
346,6.93999,-0.0733824,0.000325885
347,6.95999,-0.0729516,0.00032963
348,6.97999,-0.0717722,0.000329805
349,6.99999,-0.0703845,0.000331569
350,7.01999,-0.0691084,0.000334615
351,7.03999,-0.0673724,0.00033638
352,7.05999,-0.0664488,0.000338675
353,7.07999,-0.0647081,0.00034118
354,7.09999,-0.0629779,0.000343345
355,7.11999,-0.0609961,0.000345613
356,7.13999,-0.0590648,0.000348147
357,7.15999,-0.0566701,0.000350981
358,7.17999,-0.0541671,0.00035403
359,7.19999,-0.0514992,0.000354846
360,7.21999,-0.0478852,0.000358495
361,7.23999,-0.0456796,0.000365023
362,7.25999,-0.0416851,0.000364041
363,7.27999,-0.039379,0.000368224
364,7.29999,-0.034838,0.000368567
365,7.31999,-0.0312138,0.000371537
366,7.33999,-0.0272164,0.000375611
367,7.35999,-0.0231124,0.000380254
368,7.37999,-0.0193513,0.000384065
369,7.39999,-0.0144752,0.000389275
370,7.41999,-0.0105045,0.000392881
371,7.43999,-0.00508103,0.000397329
372,7.45999,-0.000186261,0.000399043
373,7.47999,0.00423191,0.000403932
374,7.49999,0.00869052,0.000407856
375,7.51999,0.0143383,0.000411361
376,7.53999,0.019099,0.000415232
377,7.55999,0.0236227,0.000420399
378,7.57999,0.0281451,0.000422809
379,7.59999,0.0324045,0.000428153
380,7.61999,0.0373637,0.000430739
381,7.63999,0.0417212,0.000434866
382,7.65999,0.0463107,0.000440587
383,7.67999,0.0499468,0.000439713
384,7.69999,0.0529844,0.000443611
385,7.71999,0.0577801,0.000447999
386,7.73999,0.060248,0.000449939
387,7.75999,0.0627328,0.000452216
388,7.77999,0.0641578,0.000457257
389,7.79999,0.0662985,0.000456843
390,7.81999,0.0684409,0.000458872
391,7.83999,0.06969,0.000462093
392,7.85999,0.0701938,0.0004624
393,7.87999,0.0709321,0.000462774
394,7.89999,0.0718449,0.000464809
395,7.91999,0.0711225,0.0004633
396,7.93999,0.0707619,0.000466507
397,7.95999,0.069274,0.000467799
398,7.97999,0.0682126,0.0004672
399,7.99999,0.0670056,0.000467932
400,8.01999,0.0656668,0.00046808
401,8.03999,0.0647551,0.000467806
402,8.05999,0.0623276,0.000466709
403,8.08,0.0606308,0.000465749
404,8.1,0.0579784,0.000470721
405,8.12,0.057037,0.000467387
406,8.14,0.0539204,0.000464472
407,8.16,0.0525478,0.000462968
408,8.18,0.0492702,0.000464578
409,8.2,0.0474382,0.000465425
410,8.22,0.0445486,0.000463606
411,8.24,0.0432546,0.000463722
412,8.26,0.0401364,0.000461084
413,8.28,0.0378237,0.000460969
414,8.3,0.0353627,0.000458115
415,8.32,0.0330217,0.000460213
416,8.34,0.0316035,0.000459466
417,8.36,0.029653,0.000459048
418,8.38,0.0275764,0.000456481
419,8.4,0.0261208,0.000458132
420,8.42,0.0239742,0.00045424
421,8.44,0.0214694,0.000460295
422,8.46,0.0198831,0.000457327
423,8.48,0.0189421,0.000455305
424,8.5,0.0167966,0.000456706
425,8.52001,0.0156079,0.000456302
426,8.54001,0.0147482,0.000453687
427,8.56001,0.0133125,0.000453691
428,8.58001,0.0126567,0.000454273
429,8.60001,0.0113669,0.000453364
430,8.62001,0.00907409,0.000456837
431,8.64001,0.00904911,0.00045282
432,8.66001,0.00745815,0.000458261
433,8.68001,0.00646981,0.000456723
434,8.70001,0.00768601,0.000457543
435,8.72001,0.00651051,0.000455542
436,8.74001,0.0062494,0.000456973
437,8.76001,0.0051433,0.000456151
438,8.78001,0.00370646,0.000456324
439,8.80001,0.00410504,0.000458552
440,8.82001,0.00378564,0.000456295
441,8.84001,0.00350672,0.000459293
442,8.86001,0.0030339,0.000456005
443,8.88001,0.00410793,0.000459823
444,8.90001,0.00302691,0.000459414
445,8.92001,0.00234322,0.000463106
446,8.94001,0.00348246,0.000463087
447,8.96002,0.00319423,0.00046318
448,8.98002,0.00198591,0.000465633
449,9.00002,0.00238948,0.000465236
450,9.02002,0.00266083,0.000468031
451,9.04002,0.00273347,0.000467637
452,9.06002,0.00326944,0.000467732
453,9.08002,0.00398496,0.000468348
454,9.10002,0.00427256,0.000465522
455,9.12002,0.00408891,0.00047232
456,9.14002,0.00418292,0.000472404
457,9.16002,0.00466285,0.000469673
458,9.18002,0.00478028,0.000470602
459,9.20002,0.00498416,0.000470443
460,9.22002,0.00530102,0.000472372
461,9.24002,0.00647711,0.000474215
462,9.26002,0.00676434,0.000475151
463,9.28002,0.00678189,0.00047398
464,9.30002,0.0066833,0.000476467
465,9.32002,0.00780807,0.000479492
466,9.34002,0.00828112,0.000479848
467,9.36002,0.00820688,0.000481543
468,9.38002,0.00782264,0.000480982
469,9.40003,0.00801006,0.000482361
470,9.42003,0.00828491,0.000481624
471,9.44003,0.00838742,0.000483626
472,9.46003,0.00961147,0.000485518
473,9.48003,0.00993041,0.000485976
474,9.50003,0.00977676,0.000484459
475,9.52003,0.010599,0.000484553
476,9.54003,0.0116656,0.000485247
477,9.56003,0.0117689,0.000489327
478,9.58003,0.0117067,0.000490331
479,9.60003,0.0121063,0.000493072
480,9.62003,0.0132542,0.00049101
481,9.64003,0.0126757,0.000495046
482,9.66003,0.0135556,0.000492065
483,9.68003,0.0134595,0.000495882
484,9.70003,0.0142291,0.000497639
485,9.72003,0.0135557,0.000496399
486,9.74003,0.0141344,0.000492097
487,9.76003,0.0149549,0.000496367
488,9.78003,0.0153925,0.000499329
489,9.80003,0.0162414,0.000498556
490,9.82003,0.0149184,0.000501749
491,9.84004,0.0158976,0.00049992
492,9.86004,0.0150247,0.000504294
493,9.88004,0.0163035,0.000499419
494,9.90004,0.0155536,0.000503156
495,9.92004,0.0160516,0.000503613
496,9.94004,0.0154975,0.000500259
497,9.96004,0.0162324,0.000501385
498,9.98004,0.0148128,0.000505127
499,10.0,0.0144491,0.000504
500,10.02,0.0152859,0.000502348
501,10.04,0.0150959,0.000505256
502,10.06,0.0140135,0.000504003
503,10.08,0.014112,0.000506351
504,10.1,0.0114568,0.000509297
505,10.12,0.0114601,0.000505608
506,10.14,0.0103486,0.00051078
507,10.16,0.010289,0.000504666
508,10.18,0.00982857,0.000501179
509,10.2,0.00772275,0.000504632
510,10.22,0.00606727,0.000507284
511,10.24,0.00607171,0.000508037
512,10.26,0.00532578,0.00050316
513,10.28,0.00360482,0.000505227
514,10.3,0.00223129,0.000500291
515,10.32,0.00119184,0.000506246
516,10.34,-7.62064e-05,0.00050306
517,10.36,-0.00087857,0.000500298
518,10.38,-0.00267253,0.000503658
519,10.4,-0.00280992,0.000496386
520,10.42,-0.00404528,0.000499217
521,10.44,-0.00747337,0.000498206
522,10.46,-0.00884458,0.000502358
523,10.4801,-0.0101582,0.000499778
524,10.5001,-0.0117837,0.00050143
525,10.5201,-0.0123094,0.000500605
526,10.5401,-0.0137317,0.000495414
527,10.5601,-0.0157929,0.000495686
528,10.5801,-0.0170051,0.000491336
529,10.6001,-0.0183269,0.00049358
530,10.6201,-0.0200434,0.000496205
531,10.6401,-0.0222146,0.000494142
532,10.6601,-0.0229392,0.000496816
533,10.6801,-0.0232926,0.000491169
534,10.7001,-0.0255989,0.000493576
535,10.7201,-0.0274519,0.000491167
536,10.7401,-0.0277678,0.000492457
537,10.7601,-0.0287418,0.000488613
538,10.7801,-0.0294756,0.000488552
539,10.8001,-0.0312174,0.000487586
540,10.8201,-0.0324089,0.000491032
541,10.8401,-0.0326245,0.000489594
542,10.8601,-0.0340082,0.000487311
543,10.8801,-0.0357536,0.000492695
544,10.9001,-0.0367464,0.000490275
545,10.9201,-0.0374178,0.000493707
546,10.9401,-0.0378581,0.000494031
547,10.9601,-0.0386765,0.000487974
548,10.9801,-0.0383787,0.000484846
549,11.0001,-0.0393842,0.000487161
550,11.0201,-0.0397098,0.000491834
551,11.0401,-0.0406818,0.000493741
552,11.0601,-0.0407765,0.000496476
553,11.0801,-0.0419324,0.00049602
554,11.1001,-0.0414528,0.000499188
555,11.1201,-0.0412867,0.000493844
556,11.1401,-0.0407953,0.000492006
557,11.1601,-0.0415015,0.000490378
558,11.1801,-0.0416033,0.000493167
559,11.2001,-0.0423439,0.000500943
560,11.2201,-0.0432956,0.000496907
561,11.2401,-0.0420935,0.000494393
562,11.2601,-0.0420953,0.000496946
563,11.2801,-0.0415389,0.000502259
564,11.3001,-0.0410409,0.000500341
565,11.3201,-0.0417444,0.000509385
566,11.3401,-0.0413933,0.000501596
567,11.3601,-0.0395592,0.000501828
568,11.3801,-0.0377455,0.000498897
569,11.4001,-0.0384585,0.000498279
570,11.4201,-0.0373235,0.000506987
571,11.4401,-0.0368028,0.000506149
572,11.4601,-0.0366634,0.000511181
573,11.4801,-0.0357953,0.000510616
574,11.5001,-0.0336333,0.000511478
575,11.5201,-0.0322678,0.000510112
576,11.5401,-0.031824,0.000516449
577,11.5601,-0.0310667,0.000515647
578,11.5801,-0.0299189,0.000515635
579,11.6001,-0.027908,0.000519898
580,11.6201,-0.0265313,0.000522449
581,11.6401,-0.025369,0.000524135
582,11.6601,-0.0237178,0.000523993
583,11.6801,-0.0207928,0.000522112
584,11.7001,-0.0197469,0.000529062
585,11.7201,-0.0182366,0.00052795
586,11.7401,-0.0161318,0.000530601
587,11.7601,-0.0140428,0.000535251
588,11.7801,-0.0118341,0.000532254
589,11.8001,-0.00958756,0.000538478
590,11.8201,-0.00704913,0.000541647
591,11.8401,-0.00494239,0.000542423
592,11.8601,-0.0033617,0.000545259
593,11.8801,-0.00127374,0.000551882
594,11.9001,0.002145,0.000549207
595,11.9201,0.00435077,0.000551273
596,11.9401,0.00648687,0.000563145
597,11.9601,0.00873318,0.000560062
598,11.9801,0.0109421,0.000563847
599,12.0001,0.0147808,0.000562557
600,12.0201,0.0165318,0.000565681
601,12.0401,0.0183248,0.000571826
602,12.0601,0.0208596,0.000576152
603,12.0801,0.0243818,0.000575633
604,12.1001,0.0261753,0.000577135
605,12.1201,0.0284391,0.00057853
606,12.1401,0.0312322,0.00058615
607,12.1601,0.0319838,0.000589596
608,12.1801,0.0350935,0.000588909
609,12.2001,0.0363619,0.00059268
610,12.2201,0.0396689,0.000593743
611,12.2401,0.0418168,0.000595946
612,12.2601,0.0429402,0.00059819
613,12.2801,0.0448384,0.000597331
614,12.3001,0.0470867,0.000599153
615,12.3201,0.0477989,0.000601496
616,12.3401,0.0488824,0.000605071
617,12.3601,0.0512997,0.00060602
618,12.3801,0.0533587,0.000607608
619,12.4001,0.0528637,0.00060434
620,12.4201,0.0546661,0.000607769
621,12.4401,0.0553835,0.000620953
622,12.4601,0.0563396,0.000620303
623,12.4801,0.0567611,0.000624734
624,12.5001,0.0559224,0.000623476
625,12.5201,0.0578253,0.00061726
626,12.5401,0.0576683,0.000622273
627,12.5601,0.057065,0.000625195
628,12.5801,0.0550747,0.000623916
629,12.6001,0.057122,0.000620493
630,12.6201,0.0552279,0.000623803
631,12.6401,0.0539091,0.00062263
632,12.6601,0.053695,0.00062308
633,12.6801,0.0523043,0.000625406
634,12.7001,0.0523977,0.000621427
635,12.7201,0.0508177,0.000627569
636,12.7401,0.0500033,0.000626114
637,12.7601,0.0480241,0.000623957
638,12.7801,0.0461844,0.00061658
639,12.8001,0.044658,0.000621465
640,12.8201,0.044061,0.000623192
641,12.8401,0.0419175,0.000619899
642,12.8601,0.0391339,0.000624064
643,12.8801,0.0367158,0.000621069
644,12.9001,0.0368466,0.000615841
645,12.9201,0.0350287,0.000615347
646,12.9401,0.0326738,0.000615527
647,12.9601,0.0310483,0.000613159
648,12.9801,0.0289243,0.000613094
649,13.0001,0.0272713,0.000610059
650,13.0201,0.0256346,0.00061149
651,13.0401,0.0232556,0.000610489
652,13.0601,0.0227381,0.000607907
653,13.0801,0.0195441,0.000605297
654,13.1001,0.0183437,0.000602704
655,13.1201,0.0162603,0.000608184
656,13.1401,0.01363,0.000608914
657,13.1601,0.0117244,0.000607293
658,13.1801,0.00982618,0.000605012
659,13.2001,0.00792074,0.000603961
660,13.2201,0.00588085,0.000601527
661,13.2401,0.00457476,0.00059839
662,13.2601,0.00285526,0.000598807
663,13.2801,0.00260936,0.000596094
664,13.3001,0.000633166,0.000597411
665,13.3201,-0.00117409,0.000596562
666,13.3401,-0.00241646,0.000592611
667,13.3601,-0.00386016,0.000595959
668,13.3801,-0.00583414,0.000592944
669,13.4001,-0.00715857,0.000593584
670,13.4201,-0.00814724,0.000593208
671,13.4401,-0.0100896,0.000589555
672,13.4601,-0.0102669,0.000584724
673,13.4801,-0.0121722,0.000592424
674,13.5001,-0.0138683,0.000590666
675,13.5201,-0.0145366,0.00059132
676,13.5401,-0.0147567,0.00059333
677,13.5601,-0.015853,0.000590383
678,13.5801,-0.0170554,0.000591732
679,13.6001,-0.0177136,0.000593339
680,13.6201,-0.0187171,0.000596466
681,13.6401,-0.0188171,0.000593248
682,13.6601,-0.0192764,0.000594073
683,13.6801,-0.0196055,0.000584946
684,13.7001,-0.0207647,0.000587661
685,13.7201,-0.0212902,0.000591429
686,13.7401,-0.0212349,0.000593564
687,13.7601,-0.022077,0.000593393
688,13.7801,-0.0223697,0.000592338
689,13.8001,-0.0239134,0.000601716
690,13.8201,-0.0243261,0.00059778
691,13.8401,-0.0238218,0.0005948
692,13.8601,-0.022878,0.000592099
693,13.8801,-0.0228336,0.000589917
694,13.9001,-0.0245203,0.000594006
695,13.9201,-0.024121,0.000594868
696,13.9401,-0.0240384,0.000595008
697,13.9601,-0.0238191,0.00059616
698,13.9801,-0.0252799,0.000600915
699,14.0001,-0.0229445,0.000591635
700,14.0201,-0.0238136,0.000595286
701,14.0401,-0.0233427,0.000599023
702,14.0601,-0.0234862,0.000600553
703,14.0801,-0.0233314,0.000594817
704,14.1001,-0.0235531,0.000599598
705,14.1201,-0.0229881,0.000604303
706,14.1401,-0.0236491,0.000605636
707,14.1601,-0.0236057,0.000607479
708,14.1801,-0.0220342,0.000608362
709,14.2001,-0.0221145,0.000606777
710,14.2201,-0.0217424,0.000605097
711,14.2401,-0.0213918,0.000610126
712,14.2601,-0.0204671,0.000610467
713,14.2801,-0.0189798,0.000610864
714,14.3001,-0.0196284,0.000613959
715,14.3201,-0.0191408,0.00061082
716,14.3401,-0.0182543,0.00061312
717,14.3601,-0.0176824,0.000617213
718,14.3801,-0.0159329,0.000609255
719,14.4001,-0.0149367,0.000608645
720,14.4201,-0.0147543,0.000613979
721,14.4401,-0.01464,0.000617998
722,14.4601,-0.0155704,0.00062256
723,14.4801,-0.0146728,0.000620198
724,14.5001,-0.0135963,0.000624124
725,14.5201,-0.0124363,0.000628854
726,14.5401,-0.0114537,0.000630516
727,14.5601,-0.0113397,0.000625895
728,14.5801,-0.0112041,0.000627826
729,14.6001,-0.00941323,0.000625059
730,14.6201,-0.00843472,0.000631183
731,14.6401,-0.00931517,0.000634208
732,14.6601,-0.00903081,0.000638509
733,14.6801,-0.00768664,0.000634401
734,14.7001,-0.00724412,0.000635357
735,14.7201,-0.00589422,0.00063932
736,14.7401,-0.00552455,0.000641327
737,14.7601,-0.0055899,0.000638007
738,14.7801,-0.00438796,0.000643931
739,14.8001,-0.00463472,0.000645903
740,14.8201,-0.00273395,0.000638247
741,14.8401,-0.00300055,0.000648344
742,14.8602,-0.00290727,0.000650294
743,14.8802,-0.00161087,0.00064729
744,14.9002,-0.00169557,0.000650122
745,14.9202,-0.00105265,0.000645311
746,14.9402,-0.000735062,0.00064875
747,14.9602,-0.00158536,0.000653794
748,14.9802,-0.000622591,0.000652568
749,15.0002,-3.37483e-05,0.000655905
750,15.0202,0.000440926,0.000653569
751,15.0402,0.000240746,0.000655039
752,15.0602,0.000908884,0.00065908
753,15.0802,0.000427511,0.000657651
754,15.1002,0.00111097,0.000658828
755,15.1202,0.00140346,0.000657582
756,15.1402,0.00168814,0.000659587
757,15.1602,0.00083903,0.00066061
758,15.1802,0.00201933,0.000659259
759,15.2002,0.000330087,0.000665871
760,15.2202,0.000958355,0.000662202
761,15.2402,0.000917036,0.000660433
762,15.2602,0.00251381,0.000667992
763,15.2802,0.00210384,0.00066718
764,15.3002,0.00116109,0.000662025
765,15.3202,-0.000126888,0.00066779
766,15.3402,0.000339659,0.000669129
767,15.3602,0.000739405,0.000669745
768,15.3802,3.30286e-05,0.000669834
769,15.4002,-0.00103794,0.000677393
770,15.4202,-0.0019842,0.00067225
771,15.4402,-0.00100695,0.000673079
772,15.4602,-0.000582351,0.000667539
773,15.4802,-0.000806836,0.000667931
774,15.5002,-0.00190699,0.000671281
775,15.5202,-0.0012434,0.000672729
776,15.5402,-0.000307586,0.000664929
777,15.5602,-0.00281996,0.000669644
778,15.5802,-0.0018387,0.000672709
779,15.6002,-0.0020698,0.000676054
780,15.6202,-0.00188105,0.000674166
781,15.6402,-0.00251628,0.000672774
782,15.6602,-0.00232132,0.000678387
783,15.6802,-0.00378141,0.000682459
784,15.7002,-0.00341329,0.000676812
785,15.7202,-0.0023175,0.000669722
786,15.7402,-0.00294611,0.000677279
787,15.7602,-0.00415532,0.00068335
788,15.7802,-0.00351923,0.000678964
789,15.8002,-0.00254997,0.000678939
790,15.8202,-0.00289755,0.000680687
791,15.8402,-0.00295046,0.000681461
792,15.8602,-0.00407993,0.000686127
793,15.8802,-0.00332159,0.000685026
794,15.9002,-0.000550729,0.000683639
795,15.9202,-0.0015367,0.000682812
796,15.9402,-0.00319169,0.000685266
797,15.9602,-0.002604,0.00068533
798,15.9802,-0.00276558,0.000686805
799,16.0002,-0.00293709,0.000689581
800,16.0202,-0.00103976,0.000691182
801,16.0402,-0.00150576,0.000696861
802,16.0602,-0.000680695,0.000691821
803,16.0802,-5.27711e-05,0.000693899
804,16.1002,-0.000829205,0.000699891
805,16.1202,1.64003e-05,0.000691125
806,16.1402,0.00213296,0.000694989
807,16.1602,0.00186274,0.00069331
808,16.1802,0.00225352,0.000704908
809,16.2002,0.00200405,0.000704901
810,16.2202,0.00188129,0.000703803
811,16.2402,0.00401055,0.000701429
812,16.2602,0.0046675,0.000705901
813,16.2802,0.00426475,0.000705416
814,16.3002,0.00424332,0.000707706
815,16.3202,0.0065631,0.000711441
816,16.3402,0.00845091,0.000712876
817,16.3602,0.00736477,0.0007136
818,16.3802,0.00856812,0.000712572
819,16.4002,0.00852479,0.000710808
820,16.4202,0.00923836,0.000716101
821,16.4402,0.0113721,0.000713279
822,16.4602,0.0116722,0.000719685
823,16.4802,0.0125129,0.00072164
824,16.5002,0.0130153,0.00072851
825,16.5202,0.013726,0.000728476
826,16.5402,0.0146133,0.000726303
827,16.5602,0.0140995,0.00072977
828,16.5802,0.0143565,0.000731879
829,16.6002,0.0165816,0.00072967
830,16.6202,0.0175894,0.000731897
831,16.6402,0.0174874,0.000734831
832,16.6602,0.017244,0.000732262
833,16.6802,0.0188076,0.000733541
834,16.7002,0.0186336,0.000738582
835,16.7202,0.0197725,0.000737195
836,16.7402,0.0205221,0.000734753
837,16.7602,0.0204154,0.000742981
838,16.7802,0.0211201,0.000741308
839,16.8002,0.020746,0.000740334
840,16.8202,0.0205634,0.000745412
841,16.8402,0.0214067,0.000747047
842,16.8602,0.0220977,0.000752317
843,16.8802,0.0243941,0.000744198
844,16.9002,0.0230073,0.000744185
845,16.9202,0.0236099,0.000741151
846,16.9402,0.0220447,0.000748219
847,16.9602,0.0228025,0.000750875
848,16.9802,0.0228669,0.000753708
849,17.0002,0.0230309,0.000751138
850,17.0202,0.0225317,0.000754882
851,17.0402,0.0218199,0.000757025
852,17.0602,0.0228125,0.000752043
853,17.0802,0.0219705,0.000756826
854,17.1002,0.0226221,0.000751536
855,17.1202,0.0215244,0.000754538
856,17.1402,0.0218645,0.000755903
857,17.1602,0.0211551,0.00075693
858,17.1802,0.0212901,0.000756987
859,17.2002,0.0204717,0.000753805
860,17.2202,0.0198875,0.000755356
861,17.2402,0.019322,0.000754989
862,17.2602,0.0189665,0.000758883
863,17.2802,0.0174145,0.000763791
864,17.3002,0.0182559,0.000753671
865,17.3202,0.0144608,0.000763772
866,17.3402,0.0152534,0.000757199
867,17.3602,0.0142294,0.000754203
868,17.3802,0.0129122,0.000754741
869,17.4002,0.0116471,0.000769895
870,17.4202,0.0114658,0.00075783
871,17.4402,0.0100994,0.00075832
872,17.4602,0.00964126,0.000760945
873,17.4802,0.00846976,0.000763391
874,17.5002,0.00728186,0.00076468
875,17.5202,0.007539,0.000758486
876,17.5402,0.00527917,0.000753475
877,17.5602,0.00474429,0.000748291
878,17.5802,0.00303605,0.000760606
879,17.6002,0.00340679,0.000748106
880,17.6202,0.00284201,0.000749736
881,17.6402,0.00144403,0.000753724
882,17.6602,-0.000307883,0.00075474
883,17.6802,-0.00120024,0.00076065
884,17.7002,-0.00209911,0.000750095
885,17.7202,-0.00335572,0.000750827
886,17.7402,-0.00367241,0.000750531
887,17.7602,-0.00548361,0.000751687
888,17.7802,-0.00645661,0.000760569
889,17.8002,-0.00684834,0.000752887
890,17.8202,-0.00658974,0.000749947
891,17.8402,-0.00892317,0.000754341
892,17.8602,-0.00992252,0.000752377
893,17.8802,-0.0106358,0.000749098
894,17.9002,-0.0115208,0.000752967
895,17.9202,-0.0126127,0.000751659
896,17.9402,-0.0145072,0.000753089
897,17.9602,-0.0132862,0.000750749
898,17.9802,-0.0133177,0.000741206
899,18.0002,-0.015883,0.000753848
900,18.0202,-0.0163677,0.000752744
901,18.0402,-0.0161805,0.00075811
902,18.0602,-0.0161665,0.000757874
903,18.0802,-0.0171456,0.000754104
904,18.1002,-0.0170739,0.000749656
905,18.1202,-0.018291,0.000757316
906,18.1402,-0.0190381,0.000753587
907,18.1602,-0.020055,0.000751864
908,18.1802,-0.0205814,0.000754137
909,18.2002,-0.0207035,0.000749132
910,18.2202,-0.0209737,0.000753946
911,18.2402,-0.0200553,0.000756381
912,18.2602,-0.0202913,0.000751624
913,18.2802,-0.0206262,0.00075257
914,18.3002,-0.0215094,0.000758579
915,18.3202,-0.0229592,0.000758833
916,18.3402,-0.0222302,0.000757299
917,18.3602,-0.0224342,0.000756574
918,18.3802,-0.0222335,0.000752387
919,18.4002,-0.0214646,0.000756232
920,18.4202,-0.0209792,0.000758468
921,18.4402,-0.0215324,0.000762079
922,18.4602,-0.0201961,0.000760316
923,18.4802,-0.021797,0.000757128
924,18.5002,-0.0219594,0.000760598
925,18.5202,-0.0217674,0.000760801
926,18.5402,-0.0214543,0.000761039
927,18.5602,-0.0218407,0.000762292
928,18.5802,-0.0216633,0.000762733
929,18.6002,-0.0212004,0.000771323
930,18.6202,-0.020168,0.000772381
931,18.6402,-0.0191207,0.000761846
932,18.6602,-0.0191776,0.000767489
933,18.6802,-0.0207481,0.000773164
934,18.7002,-0.0193896,0.000772391
935,18.7202,-0.0194618,0.000776917
936,18.7402,-0.0196399,0.000780389
937,18.7602,-0.0176848,0.000782878
938,18.7802,-0.0171299,0.000777831
939,18.8002,-0.0186294,0.000789987
940,18.8202,-0.0163038,0.00078843
941,18.8402,-0.0163435,0.000780552
942,18.8602,-0.016494,0.000784084
943,18.8802,-0.0141278,0.000778506
944,18.9002,-0.0134741,0.000783657
945,18.9202,-0.0139788,0.000786367
946,18.9402,-0.0134837,0.000790787
947,18.9602,-0.0132752,0.000795801
948,18.9802,-0.0113668,0.000788414
949,19.0002,-0.0129089,0.000801817
950,19.0202,-0.0115747,0.000792264
951,19.0402,-0.0107492,0.000797278
952,19.0602,-0.0108482,0.000808212
953,19.0802,-0.00951242,0.00080755
954,19.1002,-0.00906175,0.000809929
955,19.1202,-0.00864957,0.000819127
956,19.1402,-0.00657039,0.000813456
957,19.1602,-0.00516025,0.000812212
958,19.1802,-0.0042936,0.000806311
959,19.2002,-0.00449176,0.000806715
960,19.2202,-0.00347887,0.000812485
961,19.2402,-0.00286716,0.000815195
962,19.2603,-0.00092728,0.000818576
963,19.2803,-0.000676713,0.000812382
964,19.3003,-0.000860388,0.000820489
965,19.3203,0.000157435,0.000818865
966,19.3403,0.00158205,0.000824711
967,19.3603,0.00342235,0.000827634
968,19.3803,0.00440817,0.000827572
969,19.4003,0.00440509,0.000829092
970,19.4203,0.00524059,0.000825891
971,19.4403,0.006217,0.000829375
972,19.4603,0.00548286,0.000832716
973,19.4803,0.00707939,0.000831103
974,19.5003,0.00782711,0.000830929
975,19.5203,0.00737808,0.000843398
976,19.5403,0.00902804,0.000843499
977,19.5603,0.00951465,0.000838747
978,19.5803,0.0103074,0.000837537
979,19.6003,0.0117693,0.000842385
980,19.6203,0.0126237,0.000839199
981,19.6403,0.0123913,0.000836115
982,19.6603,0.0125151,0.000842263
983,19.6803,0.0120934,0.000852465
984,19.7003,0.0131934,0.000864773
985,19.7203,0.0145281,0.000851922
986,19.7403,0.0140523,0.000850717
987,19.7603,0.0148836,0.000862846
988,19.7803,0.0142513,0.000852904
989,19.8003,0.0141424,0.000852841
990,19.8203,0.0148283,0.000851042
991,19.8403,0.0157306,0.000861372
992,19.8603,0.0149887,0.000864405
993,19.8803,0.0150339,0.000867198
994,19.9003,0.0181127,0.000855293
995,19.9203,0.0166581,0.000858137
996,19.9403,0.0149952,0.000868944
997,19.9603,0.0158654,0.000871066
998,19.9803,0.0151919,0.000870081