File: data/xrd_measurements/SiO2/I_Q
 unpublished http://www.isis.rl.ac.uk/disordered/manuals/atlas/sio2_orc.htm
 i(Q)
 Q i(Q) error
  0.200000E-01  0.000000E+00  0.000000E+00
  0.800000E-01  0.000000E+00  0.000000E+00
  0.140000E+00  0.000000E+00  0.000000E+00
  0.200000E+00  0.000000E+00  0.000000E+00
  0.260000E+00  0.000000E+00  0.000000E+00
  0.320000E+00  0.000000E+00  0.000000E+00
  0.380000E+00  0.000000E+00  0.000000E+00
  0.440000E+00  0.000000E+00  0.000000E+00
  0.500000E+00  0.000000E+00  0.000000E+00
  0.560000E+00 -0.228655E+00  0.528995E-03
  0.620000E+00 -0.218350E+00  0.580695E-03
  0.680000E+00 -0.206465E+00  0.651390E-03
  0.740000E+00 -0.194868E+00  0.729592E-03
  0.800000E+00 -0.183898E+00  0.823678E-03
  0.860000E+00 -0.176586E+00  0.981721E-03
  0.920000E+00 -0.170178E+00  0.110404E-02
  0.980000E+00 -0.156809E+00  0.123430E-02
  0.104000E+01 -0.136887E+00  0.132420E-02
  0.110000E+01 -0.122339E+00  0.147228E-02
  0.116000E+01 -0.923165E-01  0.162422E-02
  0.122000E+01 -0.579386E-01  0.178174E-02
  0.128000E+01  0.235045E-02  0.642850E-03
  0.134000E+01  0.560417E-01  0.731711E-03
  0.140000E+01  0.108076E+00  0.816993E-03
  0.146000E+01  0.143785E+00  0.881722E-03
  0.152000E+01  0.150701E+00  0.933451E-03
  0.158000E+01  0.132519E+00  0.104654E-02
  0.164000E+01  0.988480E-01  0.102812E-02
  0.170000E+01  0.530031E-01  0.104197E-02
  0.176000E+01  0.168683E-01  0.100612E-02
  0.182000E+01 -0.184957E-01  0.100660E-02
  0.188000E+01 -0.479173E-01  0.969004E-03
  0.194000E+01 -0.717360E-01  0.963852E-03
  0.200000E+01 -0.893417E-01  0.950175E-03
  0.206000E+01 -0.104249E+00  0.913390E-03
  0.212000E+01 -0.116541E+00  0.910667E-03
  0.218000E+01 -0.126073E+00  0.914797E-03
  0.224000E+01 -0.135070E+00  0.918287E-03
  0.230000E+01 -0.140362E+00  0.879564E-03
  0.236000E+01 -0.147062E+00  0.934709E-03
  0.242000E+01 -0.146516E+00  0.911465E-03
  0.248000E+01 -0.145534E+00  0.518115E-03
  0.254000E+01 -0.136734E+00  0.524733E-03
  0.260000E+01 -0.121484E+00  0.569325E-03
  0.266000E+01 -0.867801E-01  0.619611E-03
  0.272000E+01 -0.389674E-01  0.687932E-03
  0.278000E+01  0.140088E-01  0.772538E-03
  0.284000E+01  0.521782E-01  0.828136E-03
  0.290000E+01  0.660478E-01  0.864098E-03
  0.296000E+01  0.596901E-01  0.868977E-03
  0.302000E+01  0.466251E-01  0.869767E-03
  0.308000E+01  0.297864E-01  0.867953E-03
  0.314000E+01  0.141884E-01  0.867492E-03
  0.320000E+01 -0.819469E-03  0.865916E-03
  0.326000E+01 -0.114633E-01  0.853504E-03
  0.332000E+01 -0.242772E-01  0.857658E-03
  0.338000E+01 -0.325504E-01  0.868605E-03
  0.344000E+01 -0.396701E-01  0.883024E-03
  0.350000E+01 -0.444645E-01  0.877878E-03
  0.356000E+01 -0.503851E-01  0.904915E-03
  0.362000E+01 -0.517318E-01  0.891551E-03
  0.368000E+01 -0.535070E-01  0.900595E-03
  0.374000E+01 -0.525336E-01  0.905319E-03
  0.380000E+01 -0.560220E-01  0.946851E-03
  0.386000E+01 -0.534156E-01  0.938627E-03
  0.392000E+01 -0.505368E-01  0.277004E-03
  0.398000E+01 -0.486042E-01  0.282442E-03
  0.404000E+01 -0.464810E-01  0.288778E-03
  0.410000E+01 -0.430929E-01  0.295110E-03
  0.416000E+01 -0.385202E-01  0.302537E-03
  0.422000E+01 -0.339257E-01  0.308660E-03
  0.428000E+01 -0.287854E-01  0.315547E-03
  0.434000E+01 -0.240303E-01  0.325367E-03
  0.440000E+01 -0.183310E-01  0.333762E-03
  0.446000E+01 -0.119560E-01  0.339762E-03
  0.452000E+01 -0.494426E-02  0.352032E-03
  0.458000E+01  0.327785E-02  0.361987E-03
  0.464000E+01  0.137623E-01  0.371715E-03
  0.470000E+01  0.256185E-01  0.386747E-03
  0.476000E+01  0.396349E-01  0.400001E-03
  0.482000E+01  0.585711E-01  0.414610E-03
  0.488000E+01  0.810805E-01  0.433361E-03
  0.494000E+01  0.106209E+00  0.455414E-03
  0.500000E+01  0.134112E+00  0.477149E-03
  0.506000E+01  0.163850E+00  0.496868E-03
  0.512000E+01  0.188047E+00  0.517242E-03
  0.518000E+01  0.206852E+00  0.534356E-03
  0.524000E+01  0.210993E+00  0.359625E-03
  0.530000E+01  0.203643E+00  0.362230E-03
  0.536000E+01  0.183804E+00  0.359117E-03
  0.542000E+01  0.155792E+00  0.351576E-03
  0.548000E+01  0.123350E+00  0.343106E-03
  0.554000E+01  0.893983E-01  0.334601E-03
  0.560000E+01  0.593836E-01  0.325098E-03
  0.566000E+01  0.327237E-01  0.315873E-03
  0.572000E+01  0.964963E-02  0.307176E-03
  0.578000E+01 -0.897041E-02  0.302144E-03
  0.584000E+01 -0.241108E-01  0.299417E-03
  0.590000E+01 -0.362068E-01  0.293763E-03
  0.596000E+01 -0.462401E-01  0.294111E-03
  0.602000E+01 -0.537349E-01  0.291890E-03
  0.608000E+01 -0.591865E-01  0.293110E-03
  0.614000E+01 -0.637708E-01  0.291858E-03
  0.620000E+01 -0.673958E-01  0.294356E-03
  0.625999E+01 -0.701994E-01  0.294495E-03
  0.631999E+01 -0.720110E-01  0.294631E-03
  0.637999E+01 -0.739261E-01  0.299468E-03
  0.643999E+01 -0.744683E-01  0.301493E-03
  0.649999E+01 -0.755288E-01  0.302135E-03
  0.655999E+01 -0.765490E-01  0.307359E-03
  0.661999E+01 -0.783991E-01  0.312902E-03
  0.667999E+01 -0.779386E-01  0.310438E-03
  0.673999E+01 -0.779973E-01  0.313468E-03
  0.679999E+01 -0.772671E-01  0.315033E-03
  0.685999E+01 -0.763562E-01  0.319865E-03
  0.691999E+01 -0.742809E-01  0.324190E-03
  0.697999E+01 -0.717722E-01  0.329805E-03
  0.703999E+01 -0.673724E-01  0.336380E-03
  0.709999E+01 -0.629779E-01  0.343345E-03
  0.715999E+01 -0.566701E-01  0.350981E-03
  0.721999E+01 -0.478852E-01  0.358495E-03
  0.727999E+01 -0.393790E-01  0.368224E-03
  0.733999E+01 -0.272164E-01  0.375611E-03
  0.739999E+01 -0.144752E-01  0.389275E-03
  0.745999E+01 -0.186261E-03  0.399043E-03
  0.751999E+01  0.143383E-01  0.411361E-03
  0.757999E+01  0.281451E-01  0.422809E-03
  0.763999E+01  0.417212E-01  0.434866E-03
  0.769999E+01  0.529844E-01  0.443611E-03
  0.775999E+01  0.627328E-01  0.452216E-03
  0.781999E+01  0.684409E-01  0.458872E-03
  0.787999E+01  0.709321E-01  0.462774E-03
  0.793999E+01  0.707619E-01  0.466507E-03
  0.799999E+01  0.670056E-01  0.467932E-03
  0.805999E+01  0.623276E-01  0.466709E-03
  0.812000E+01  0.570370E-01  0.467387E-03
  0.818000E+01  0.492702E-01  0.464578E-03
  0.824000E+01  0.432546E-01  0.463722E-03
  0.830000E+01  0.353627E-01  0.458115E-03
  0.836000E+01  0.296530E-01  0.459048E-03
  0.842000E+01  0.239742E-01  0.454240E-03
  0.848000E+01  0.189421E-01  0.455305E-03
  0.854001E+01  0.147482E-01  0.453687E-03
  0.860001E+01  0.113669E-01  0.453364E-03
  0.866001E+01  0.745815E-02  0.458261E-03
  0.872001E+01  0.651051E-02  0.455542E-03
  0.878001E+01  0.370646E-02  0.456324E-03
  0.884001E+01  0.350672E-02  0.459293E-03
  0.890001E+01  0.302691E-02  0.459414E-03
  0.896002E+01  0.319423E-02  0.463180E-03
  0.902002E+01  0.266083E-02  0.468031E-03
  0.908002E+01  0.398496E-02  0.468348E-03
  0.914002E+01  0.418292E-02  0.472404E-03
  0.920002E+01  0.498416E-02  0.470443E-03
  0.926002E+01  0.676434E-02  0.475151E-03
  0.932002E+01  0.780807E-02  0.479492E-03
  0.938002E+01  0.782264E-02  0.480982E-03
  0.944003E+01  0.838742E-02  0.483626E-03
  0.950003E+01  0.977676E-02  0.484459E-03
  0.956003E+01  0.117689E-01  0.489327E-03
  0.962003E+01  0.132542E-01  0.491010E-03
  0.968003E+01  0.134595E-01  0.495882E-03
  0.974003E+01  0.141344E-01  0.492097E-03
  0.980003E+01  0.162414E-01  0.498556E-03
  0.986004E+01  0.150247E-01  0.504294E-03
  0.992004E+01  0.160516E-01  0.503613E-03
  0.998004E+01  0.148128E-01  0.505127E-03
  0.100400E+02  0.150959E-01  0.505256E-03
  0.101000E+02  0.114568E-01  0.509297E-03
  0.101600E+02  0.102890E-01  0.504666E-03
  0.102200E+02  0.606727E-02  0.507284E-03
  0.102800E+02  0.360482E-02  0.505227E-03
  0.103400E+02 -0.762064E-04  0.503060E-03
  0.104000E+02 -0.280992E-02  0.496386E-03
  0.104600E+02 -0.884458E-02  0.502358E-03
  0.105201E+02 -0.123094E-01  0.500605E-03
  0.105801E+02 -0.170051E-01  0.491336E-03
  0.106401E+02 -0.222146E-01  0.494142E-03
  0.107001E+02 -0.255989E-01  0.493576E-03
  0.107601E+02 -0.287418E-01  0.488613E-03
  0.108201E+02 -0.324089E-01  0.491032E-03
  0.108801E+02 -0.357536E-01  0.492695E-03
  0.109401E+02 -0.378581E-01  0.494031E-03
  0.110001E+02 -0.393842E-01  0.487161E-03
  0.110601E+02 -0.407765E-01  0.496476E-03
  0.111201E+02 -0.412867E-01  0.493844E-03
  0.111801E+02 -0.416033E-01  0.493167E-03
  0.112401E+02 -0.420935E-01  0.494393E-03
  0.113001E+02 -0.410409E-01  0.500341E-03
  0.113601E+02 -0.395592E-01  0.501828E-03
  0.114201E+02 -0.373235E-01  0.506987E-03
  0.114801E+02 -0.357953E-01  0.510616E-03
  0.115401E+02 -0.318240E-01  0.516449E-03
  0.116001E+02 -0.279080E-01  0.519898E-03
  0.116601E+02 -0.237178E-01  0.523993E-03
  0.117201E+02 -0.182366E-01  0.527950E-03
  0.117801E+02 -0.118341E-01  0.532254E-03
  0.118401E+02 -0.494239E-02  0.542423E-03
  0.119001E+02  0.214500E-02  0.549207E-03
  0.119601E+02  0.873318E-02  0.560062E-03
  0.120201E+02  0.165318E-01  0.565681E-03
  0.120801E+02  0.243818E-01  0.575633E-03
  0.121401E+02  0.312322E-01  0.586150E-03
  0.122001E+02  0.363619E-01  0.592680E-03
  0.122601E+02  0.429402E-01  0.598190E-03
  0.123201E+02  0.477989E-01  0.601496E-03
  0.123801E+02  0.533587E-01  0.607608E-03
  0.124401E+02  0.553835E-01  0.620953E-03
  0.125001E+02  0.559224E-01  0.623476E-03
  0.125601E+02  0.570650E-01  0.625195E-03
  0.126201E+02  0.552279E-01  0.623803E-03
  0.126801E+02  0.523043E-01  0.625406E-03
  0.127401E+02  0.500033E-01  0.626114E-03
  0.128001E+02  0.446580E-01  0.621465E-03
  0.128601E+02  0.391339E-01  0.624064E-03
  0.129201E+02  0.350287E-01  0.615347E-03
  0.129801E+02  0.289243E-01  0.613094E-03
  0.130401E+02  0.232556E-01  0.610489E-03
  0.131001E+02  0.183437E-01  0.602704E-03
  0.131601E+02  0.117244E-01  0.607293E-03
  0.132201E+02  0.588085E-02  0.601527E-03
  0.132801E+02  0.260936E-02  0.596094E-03
  0.133401E+02 -0.241646E-02  0.592611E-03
  0.134001E+02 -0.715857E-02  0.593584E-03
  0.134601E+02 -0.102669E-01  0.584724E-03
  0.135201E+02 -0.145366E-01  0.591320E-03
  0.135801E+02 -0.170554E-01  0.591732E-03
  0.136401E+02 -0.188171E-01  0.593248E-03
  0.137001E+02 -0.207647E-01  0.587661E-03
  0.137601E+02 -0.220770E-01  0.593393E-03
  0.138201E+02 -0.243261E-01  0.597780E-03
  0.138801E+02 -0.228336E-01  0.589917E-03
  0.139401E+02 -0.240384E-01  0.595008E-03
  0.140001E+02 -0.229445E-01  0.591635E-03
  0.140601E+02 -0.234862E-01  0.600553E-03
  0.141201E+02 -0.229881E-01  0.604303E-03
  0.141801E+02 -0.220342E-01  0.608362E-03
  0.142401E+02 -0.213918E-01  0.610126E-03
  0.143001E+02 -0.196284E-01  0.613959E-03
  0.143601E+02 -0.176824E-01  0.617213E-03
  0.144201E+02 -0.147543E-01  0.613979E-03
  0.144801E+02 -0.146728E-01  0.620198E-03
  0.145401E+02 -0.114537E-01  0.630516E-03
  0.146001E+02 -0.941323E-02  0.625059E-03
  0.146601E+02 -0.903081E-02  0.638509E-03
  0.147201E+02 -0.589422E-02  0.639320E-03
  0.147801E+02 -0.438796E-02  0.643931E-03
  0.148401E+02 -0.300055E-02  0.648344E-03
  0.149002E+02 -0.169557E-02  0.650122E-03
  0.149602E+02 -0.158536E-02  0.653794E-03
  0.150202E+02  0.440926E-03  0.653569E-03
  0.150802E+02  0.427511E-03  0.657651E-03
  0.151402E+02  0.168814E-02  0.659587E-03
  0.152002E+02  0.330087E-03  0.665871E-03
  0.152602E+02  0.251381E-02  0.667992E-03
  0.153202E+02 -0.126888E-03  0.667790E-03
  0.153802E+02  0.330286E-04  0.669834E-03
  0.154402E+02 -0.100695E-02  0.673079E-03
  0.155002E+02 -0.190699E-02  0.671281E-03
  0.155602E+02 -0.281996E-02  0.669644E-03
  0.156202E+02 -0.188105E-02  0.674166E-03
  0.156802E+02 -0.378141E-02  0.682459E-03
  0.157402E+02 -0.294611E-02  0.677279E-03
  0.158002E+02 -0.254997E-02  0.678939E-03
  0.158602E+02 -0.407993E-02  0.686127E-03
  0.159202E+02 -0.153670E-02  0.682812E-03
  0.159802E+02 -0.276558E-02  0.686805E-03
  0.160402E+02 -0.150576E-02  0.696861E-03
  0.161002E+02 -0.829205E-03  0.699891E-03
  0.161602E+02  0.186274E-02  0.693310E-03
  0.162202E+02  0.188129E-02  0.703803E-03
  0.162802E+02  0.426475E-02  0.705416E-03
  0.163402E+02  0.845091E-02  0.712876E-03
  0.164002E+02  0.852479E-02  0.710808E-03
  0.164602E+02  0.116722E-01  0.719685E-03
  0.165202E+02  0.137260E-01  0.728476E-03
  0.165802E+02  0.143565E-01  0.731879E-03
  0.166402E+02  0.174874E-01  0.734831E-03
  0.167002E+02  0.186336E-01  0.738582E-03
  0.167602E+02  0.204154E-01  0.742981E-03
  0.168202E+02  0.205634E-01  0.745412E-03
  0.168802E+02  0.243941E-01  0.744198E-03
  0.169402E+02  0.220447E-01  0.748219E-03
  0.170002E+02  0.230309E-01  0.751138E-03
  0.170602E+02  0.228125E-01  0.752043E-03
  0.171202E+02  0.215244E-01  0.754538E-03
  0.171802E+02  0.212901E-01  0.756987E-03
  0.172402E+02  0.193220E-01  0.754989E-03
  0.173002E+02  0.182559E-01  0.753671E-03
  0.173602E+02  0.142294E-01  0.754203E-03
  0.174202E+02  0.114658E-01  0.757830E-03
  0.174802E+02  0.846976E-02  0.763391E-03
  0.175402E+02  0.527917E-02  0.753475E-03
  0.176002E+02  0.340679E-02  0.748106E-03
  0.176602E+02 -0.307883E-03  0.754740E-03
  0.177202E+02 -0.335572E-02  0.750827E-03
  0.177802E+02 -0.645661E-02  0.760569E-03
  0.178402E+02 -0.892317E-02  0.754341E-03
  0.179002E+02 -0.115208E-01  0.752967E-03
  0.179602E+02 -0.132862E-01  0.750749E-03
  0.180202E+02 -0.163677E-01  0.752744E-03
  0.180802E+02 -0.171456E-01  0.754104E-03
  0.181402E+02 -0.190381E-01  0.753587E-03
  0.182002E+02 -0.207035E-01  0.749132E-03
  0.182602E+02 -0.202913E-01  0.751624E-03
  0.183202E+02 -0.229592E-01  0.758833E-03
  0.183802E+02 -0.222335E-01  0.752387E-03
  0.184402E+02 -0.215324E-01  0.762079E-03
  0.185002E+02 -0.219594E-01  0.760598E-03
  0.185602E+02 -0.218407E-01  0.762292E-03
  0.186202E+02 -0.201680E-01  0.772381E-03
  0.186802E+02 -0.207481E-01  0.773164E-03
  0.187402E+02 -0.196399E-01  0.780389E-03
  0.188002E+02 -0.186294E-01  0.789987E-03
  0.188602E+02 -0.164940E-01  0.784084E-03
  0.189202E+02 -0.139788E-01  0.786367E-03
  0.189802E+02 -0.113668E-01  0.788414E-03
  0.190402E+02 -0.107492E-01  0.797278E-03
  0.191002E+02 -0.906175E-02  0.809929E-03
  0.191602E+02 -0.516025E-02  0.812212E-03
  0.192202E+02 -0.347887E-02  0.812485E-03
  0.192803E+02 -0.676713E-03  0.812382E-03
  0.193403E+02  0.158205E-02  0.824711E-03
  0.194003E+02  0.440509E-02  0.829092E-03
  0.194603E+02  0.548286E-02  0.832716E-03
  0.195203E+02  0.737808E-02  0.843398E-03
  0.195803E+02  0.103074E-01  0.837537E-03
  0.196403E+02  0.123913E-01  0.836115E-03
  0.197003E+02  0.131934E-01  0.864773E-03
  0.197603E+02  0.148836E-01  0.862846E-03
  0.198203E+02  0.148283E-01  0.851042E-03
  0.198803E+02  0.150339E-01  0.867198E-03
  0.199403E+02  0.149952E-01  0.868944E-03
  0.200003E+02  0.150756E-01  0.871338E-03
  0.200603E+02  0.150627E-01  0.867759E-03
  0.201203E+02  0.153846E-01  0.874026E-03
  0.201803E+02  0.143020E-01  0.866818E-03
  0.202403E+02  0.140490E-01  0.874006E-03
  0.203003E+02  0.133300E-01  0.874964E-03
  0.203603E+02  0.146048E-01  0.873881E-03
  0.204203E+02  0.119294E-01  0.863119E-03
  0.204803E+02  0.984511E-02  0.874801E-03
  0.205403E+02  0.104107E-01  0.873505E-03
  0.206003E+02  0.875909E-02  0.878418E-03
  0.206603E+02  0.795565E-02  0.878101E-03
  0.207203E+02  0.714785E-02  0.884575E-03
  0.207803E+02  0.600266E-02  0.885814E-03
  0.208403E+02  0.451026E-02  0.889311E-03
  0.209003E+02  0.341327E-02  0.891722E-03
  0.209603E+02  0.397797E-02  0.893118E-03
  0.210203E+02  0.394210E-02  0.886780E-03
  0.210803E+02  0.216934E-02  0.893707E-03
  0.211403E+02  0.149965E-02  0.895309E-03
  0.212003E+02  0.153531E-02  0.904193E-03
  0.212603E+02  0.680772E-03  0.895570E-03
  0.213203E+02 -0.565954E-03  0.908552E-03
  0.213803E+02 -0.944558E-03  0.893423E-03
  0.214403E+02 -0.104818E-02  0.909043E-03
  0.215003E+02 -0.156518E-02  0.905213E-03
  0.215603E+02 -0.129138E-02  0.913036E-03
  0.216203E+02 -0.125424E-02  0.900978E-03
  0.216803E+02 -0.280337E-02  0.902478E-03
  0.217403E+02 -0.432819E-02  0.914833E-03
  0.218003E+02 -0.402698E-02  0.919605E-03
  0.218603E+02 -0.453913E-02  0.919439E-03
  0.219203E+02 -0.418279E-02  0.920649E-03
  0.219803E+02 -0.623511E-02  0.922865E-03
  0.220403E+02 -0.575539E-02  0.921673E-03
  0.221003E+02 -0.618098E-02  0.923668E-03
  0.221603E+02 -0.581730E-02  0.925818E-03
  0.222203E+02 -0.611368E-02  0.921166E-03
  0.222803E+02 -0.821777E-02  0.936349E-03
  0.223403E+02 -0.747326E-02  0.928139E-03
  0.224003E+02 -0.825577E-02  0.927282E-03
  0.224603E+02 -0.986084E-02  0.936147E-03
  0.225203E+02 -0.935498E-02  0.939702E-03
  0.225803E+02 -0.114835E-01  0.946973E-03
  0.226403E+02 -0.803317E-02  0.942184E-03
  0.227003E+02 -0.832697E-02  0.939210E-03
  0.227603E+02 -0.821463E-02  0.944732E-03
  0.228203E+02 -0.873463E-02  0.957022E-03
  0.228803E+02 -0.913553E-02  0.957425E-03
  0.229403E+02 -0.786880E-02  0.947164E-03
  0.230003E+02 -0.883791E-02  0.962465E-03
  0.230603E+02 -0.726217E-02  0.953811E-03
  0.231203E+02 -0.735306E-02  0.972224E-03
  0.231803E+02 -0.647106E-02  0.977542E-03
  0.232403E+02 -0.433641E-02  0.958375E-03
  0.233003E+02 -0.237338E-02  0.985513E-03
  0.233603E+02 -0.328093E-02  0.982651E-03
  0.234203E+02 -0.320903E-02  0.981265E-03
  0.234803E+02 -0.130687E-02  0.994214E-03
  0.235403E+02 -0.295064E-03  0.997260E-03
  0.236003E+02  0.519188E-03  0.100962E-02
  0.236604E+02  0.363426E-02  0.999592E-03
  0.237204E+02  0.408555E-02  0.100901E-02
  0.237804E+02  0.549082E-02  0.101325E-02
  0.238404E+02  0.747872E-02  0.101392E-02
  0.239004E+02  0.805954E-02  0.101445E-02
  0.239604E+02  0.808892E-02  0.103753E-02
  0.240204E+02  0.825583E-02  0.103914E-02
  0.240804E+02  0.112863E-01  0.101596E-02
  0.241404E+02  0.101298E-01  0.103629E-02
  0.242004E+02  0.120587E-01  0.103562E-02
  0.242604E+02  0.109420E-01  0.104516E-02
  0.243204E+02  0.122476E-01  0.104396E-02
  0.243804E+02  0.120534E-01  0.103813E-02
  0.244404E+02  0.122945E-01  0.104603E-02
  0.245004E+02  0.139132E-01  0.104717E-02
  0.245604E+02  0.115630E-01  0.104531E-02
  0.246204E+02  0.103235E-01  0.105463E-02
  0.246804E+02  0.877864E-02  0.105254E-02
  0.247404E+02  0.911931E-02  0.105884E-02
  0.248004E+02  0.856524E-02  0.105602E-02
  0.248604E+02  0.620692E-02  0.106869E-02
  0.249204E+02  0.636110E-02  0.106040E-02
  0.249804E+02  0.379743E-02  0.106272E-02
  0.250404E+02  0.223402E-02  0.105707E-02
  0.251004E+02  0.773263E-03  0.106298E-02
  0.251604E+02  0.171419E-03  0.106768E-02
  0.252204E+02 -0.371107E-03  0.106919E-02
  0.252804E+02  0.139667E-04  0.106391E-02
  0.253404E+02 -0.240239E-02  0.106842E-02
  0.254004E+02 -0.170811E-02  0.106591E-02
  0.254604E+02 -0.319371E-02  0.107328E-02
  0.255204E+02 -0.497001E-02  0.106906E-02
  0.255804E+02 -0.703597E-02  0.107234E-02
  0.256404E+02 -0.650129E-02  0.107380E-02
  0.257004E+02 -0.642367E-02  0.107134E-02
  0.257604E+02 -0.755582E-02  0.108046E-02
  0.258204E+02 -0.831343E-02  0.107946E-02
  0.258804E+02 -0.624791E-02  0.108335E-02
  0.259404E+02 -0.855361E-02  0.108279E-02
  0.260004E+02 -0.786415E-02  0.108721E-02
  0.260604E+02 -0.977409E-02  0.109976E-02
  0.261204E+02 -0.949179E-02  0.109774E-02
  0.261804E+02 -0.738285E-02  0.109104E-02
  0.262404E+02 -0.672097E-02  0.109107E-02
  0.263004E+02 -0.775352E-02  0.110269E-02
  0.263604E+02 -0.676140E-02  0.110684E-02
  0.264204E+02 -0.553178E-02  0.109699E-02
  0.264804E+02 -0.417807E-02  0.109923E-02
  0.265404E+02 -0.522883E-02  0.111438E-02
  0.266004E+02 -0.522813E-02  0.111664E-02
  0.266604E+02 -0.476738E-02  0.111598E-02
  0.267204E+02 -0.333747E-02  0.111018E-02
  0.267804E+02 -0.218229E-02  0.111309E-02
  0.268404E+02 -0.337670E-02  0.113543E-02
  0.269004E+02 -0.168405E-02  0.113794E-02
  0.269604E+02 -0.164563E-02  0.113053E-02
  0.270204E+02 -0.382072E-03  0.114048E-02
  0.270804E+02 -0.171127E-03  0.114629E-02
  0.271404E+02  0.172905E-02  0.113114E-02
  0.272004E+02 -0.260100E-03  0.115896E-02
  0.272604E+02  0.171287E-02  0.114973E-02
  0.273204E+02  0.316143E-02  0.114607E-02
  0.273804E+02  0.160093E-02  0.115755E-02
  0.274404E+02  0.362705E-02  0.114916E-02
  0.275004E+02  0.290609E-02  0.115257E-02
  0.275604E+02  0.592540E-02  0.116537E-02
  0.276204E+02  0.237816E-02  0.117450E-02
  0.276804E+02  0.389008E-02  0.118050E-02
  0.277404E+02  0.358631E-02  0.117708E-02
  0.278004E+02  0.661473E-02  0.115737E-02
  0.278604E+02  0.356386E-02  0.118607E-02
  0.279204E+02  0.563954E-02  0.117386E-02
  0.279804E+02  0.468831E-02  0.117969E-02
  0.280405E+02  0.526561E-02  0.119704E-02
  0.281005E+02  0.631959E-02  0.118673E-02
  0.281605E+02  0.548958E-02  0.119697E-02
  0.282205E+02  0.697725E-02  0.118237E-02
  0.282805E+02  0.569648E-02  0.120853E-02
  0.283405E+02  0.662593E-02  0.119647E-02
  0.284005E+02  0.444994E-02  0.120792E-02
  0.284605E+02  0.798879E-02  0.120643E-02
  0.285205E+02  0.676819E-02  0.121204E-02
  0.285805E+02  0.401902E-02  0.122250E-02
  0.286405E+02  0.522609E-02  0.121437E-02
  0.287005E+02  0.283001E-02  0.123445E-02
  0.287605E+02  0.338358E-02  0.122876E-02
  0.288205E+02  0.332023E-02  0.124275E-02
  0.288805E+02  0.511769E-02  0.121073E-02
  0.289405E+02  0.563601E-02  0.121400E-02
  0.290005E+02  0.122102E-02  0.123719E-02
  0.290605E+02  0.297147E-02  0.123027E-02
  0.291205E+02 -0.427445E-03  0.123374E-02
  0.291805E+02  0.143750E-02  0.123316E-02
  0.292405E+02  0.569831E-03  0.124402E-02
  0.293005E+02 -0.379243E-03  0.123582E-02
  0.293605E+02 -0.268764E-02  0.124788E-02
  0.294205E+02 -0.231609E-02  0.125486E-02
  0.294805E+02 -0.323080E-03  0.123258E-02
  0.295405E+02 -0.359138E-02  0.123134E-02
  0.296005E+02 -0.382790E-02  0.123666E-02
  0.296605E+02 -0.396120E-02  0.125470E-02
  0.297205E+02 -0.259614E-02  0.123187E-02
  0.297805E+02 -0.480033E-02  0.125160E-02
  0.298405E+02 -0.469103E-02  0.124194E-02
  0.299005E+02 -0.486605E-02  0.124735E-02
  0.299605E+02 -0.593575E-02  0.126347E-02
  0.300205E+02 -0.648788E-02  0.124706E-02
  0.300805E+02 -0.631186E-02  0.126121E-02
  0.301405E+02 -0.672677E-02  0.126911E-02
  0.302005E+02 -0.644761E-02  0.125500E-02
  0.302605E+02 -0.673680E-02  0.128034E-02
  0.303205E+02 -0.584560E-02  0.127026E-02
  0.303805E+02 -0.578002E-02  0.127425E-02
  0.304405E+02 -0.586372E-02  0.127390E-02
  0.305005E+02 -0.383921E-02  0.127736E-02
  0.305605E+02 -0.415918E-02  0.126951E-02
  0.306205E+02 -0.261826E-02  0.127528E-02
  0.306805E+02 -0.369744E-02  0.127013E-02
  0.307405E+02 -0.400465E-02  0.128957E-02
  0.308005E+02 -0.253934E-02  0.130652E-02
  0.308605E+02 -0.243171E-02  0.130073E-02
  0.309205E+02 -0.212566E-02  0.130140E-02
  0.309805E+02  0.321813E-03  0.129277E-02
  0.310405E+02 -0.353521E-03  0.131227E-02
  0.311005E+02  0.100646E-02  0.131286E-02
  0.311605E+02  0.654215E-03  0.130882E-02
  0.312205E+02  0.191245E-02  0.131781E-02
  0.312805E+02 -0.864260E-04  0.132669E-02
  0.313405E+02 -0.103050E-02  0.134183E-02
  0.314005E+02  0.387378E-02  0.131124E-02
  0.314605E+02  0.193678E-02  0.134396E-02
  0.315205E+02  0.154304E-02  0.135030E-02
  0.315805E+02  0.509729E-02  0.133603E-02
  0.316405E+02  0.684617E-02  0.133120E-02
  0.317005E+02  0.493327E-02  0.133563E-02
  0.317605E+02  0.492402E-02  0.135931E-02
  0.318205E+02  0.576418E-02  0.134708E-02
  0.318805E+02  0.590811E-02  0.136066E-02
  0.319405E+02  0.537879E-02  0.136807E-02
  0.320005E+02  0.405879E-02  0.134999E-02
  0.320605E+02  0.420025E-02  0.136514E-02
  0.321205E+02  0.396042E-02  0.135757E-02
  0.321805E+02  0.613261E-02  0.133592E-02
  0.322405E+02  0.585249E-02  0.136704E-02
  0.323005E+02  0.420298E-02  0.136778E-02
  0.323605E+02  0.382953E-02  0.138056E-02
  0.324206E+02  0.281639E-02  0.137345E-02
  0.324806E+02  0.218565E-02  0.137366E-02
  0.325406E+02  0.366289E-02  0.138592E-02
  0.326006E+02  0.312508E-02  0.138523E-02
  0.326606E+02  0.254905E-02  0.137993E-02
  0.327206E+02  0.183113E-02  0.138025E-02
  0.327806E+02  0.121174E-02  0.138004E-02
  0.328406E+02  0.128389E-02  0.139556E-02
  0.329006E+02  0.269670E-02  0.137079E-02
  0.329606E+02 -0.339517E-03  0.138576E-02
  0.330206E+02  0.120235E-02  0.140262E-02
  0.330806E+02 -0.370371E-03  0.138482E-02
  0.331406E+02 -0.952012E-03  0.140453E-02
  0.332006E+02 -0.272667E-02  0.138619E-02
  0.332606E+02 -0.632579E-03  0.141448E-02
  0.333206E+02 -0.883189E-03  0.138581E-02
  0.333806E+02 -0.571230E-02  0.145190E-02
  0.334406E+02 -0.182740E-02  0.139628E-02
  0.335006E+02 -0.160328E-02  0.140065E-02
  0.335606E+02 -0.300436E-02  0.141898E-02
  0.336206E+02 -0.150004E-02  0.140322E-02
  0.336806E+02 -0.256133E-02  0.142473E-02
  0.337406E+02 -0.296924E-02  0.142614E-02
  0.338006E+02 -0.379406E-02  0.143262E-02
  0.338606E+02 -0.482227E-02  0.143627E-02
  0.339206E+02 -0.176337E-02  0.143013E-02
  0.339806E+02 -0.133396E-02  0.141724E-02
  0.340406E+02 -0.402705E-02  0.143042E-02
  0.341006E+02 -0.209138E-02  0.142048E-02
  0.341606E+02 -0.405726E-02  0.144107E-02
  0.342206E+02 -0.468768E-02  0.146060E-02
  0.342806E+02 -0.268732E-02  0.144694E-02
  0.343406E+02 -0.323582E-02  0.144903E-02
  0.344006E+02 -0.247582E-02  0.144478E-02
  0.344606E+02 -0.306206E-02  0.145851E-02
  0.345206E+02 -0.239510E-02  0.145150E-02
  0.345806E+02 -0.206674E-02  0.145718E-02
  0.346406E+02 -0.155514E-02  0.146762E-02
  0.347006E+02 -0.498048E-03  0.147378E-02
  0.347606E+02 -0.252610E-02  0.148004E-02
  0.348206E+02 -0.229289E-02  0.146486E-02
  0.348806E+02 -0.343030E-03  0.147058E-02
  0.349406E+02 -0.126304E-02  0.147769E-02
  0.350006E+02  0.334672E-03  0.147861E-02
  0.350606E+02  0.710314E-03  0.147293E-02
  0.351206E+02  0.185626E-02  0.149574E-02
  0.351806E+02  0.112637E-02  0.150905E-02
  0.352406E+02  0.153156E-02  0.150039E-02
  0.353006E+02  0.205889E-02  0.148972E-02
  0.353606E+02  0.241041E-02  0.148155E-02
  0.354206E+02  0.275335E-02  0.151477E-02
  0.354806E+02  0.384480E-02  0.149694E-02
  0.355406E+02  0.265227E-02  0.151481E-02
  0.356006E+02  0.464916E-02  0.152862E-02
  0.356606E+02  0.299036E-02  0.151012E-02
  0.357206E+02  0.303908E-02  0.150941E-02
  0.357806E+02  0.468793E-02  0.153699E-02
  0.358406E+02  0.906311E-03  0.155308E-02
  0.359006E+02  0.357316E-02  0.153872E-02
  0.359606E+02  0.152354E-02  0.155266E-02
  0.360206E+02  0.406216E-02  0.152381E-02
  0.360806E+02  0.310617E-02  0.155110E-02
  0.361406E+02  0.226188E-02  0.155503E-02
  0.362006E+02  0.366149E-02  0.154176E-02
  0.362606E+02  0.349870E-02  0.156470E-02
  0.363206E+02  0.184440E-02  0.153675E-02
  0.363806E+02  0.231112E-02  0.156156E-02
  0.364406E+02  0.406501E-02  0.156447E-02
  0.365006E+02  0.128686E-02  0.157549E-02
  0.365606E+02  0.786072E-03  0.156791E-02
  0.366206E+02  0.155828E-02  0.158214E-02
  0.366806E+02  0.219010E-02  0.158148E-02
  0.367407E+02 -0.749776E-03  0.158015E-02
  0.368007E+02  0.236183E-02  0.155884E-02
  0.368607E+02 -0.736812E-03  0.158048E-02
  0.369207E+02  0.142039E-02  0.157310E-02
  0.369807E+02 -0.595996E-03  0.160380E-02
  0.370407E+02 -0.112447E-02  0.159278E-02
  0.371007E+02  0.146261E-02  0.157373E-02
  0.371607E+02 -0.672719E-03  0.158425E-02
  0.372207E+02 -0.212403E-02  0.157060E-02
  0.372807E+02 -0.474411E-02  0.159769E-02
  0.373407E+02 -0.170047E-02  0.158036E-02
  0.374007E+02 -0.137687E-02  0.159280E-02
  0.374607E+02 -0.123113E-02  0.159885E-02
  0.375207E+02 -0.419407E-02  0.159713E-02
  0.375807E+02 -0.212721E-02  0.160131E-02
  0.376407E+02 -0.372399E-02  0.161535E-02
  0.377007E+02 -0.466934E-02  0.161854E-02
  0.377607E+02 -0.325127E-02  0.161433E-02
  0.378207E+02 -0.214941E-02  0.159900E-02
  0.378807E+02 -0.298493E-02  0.162240E-02
  0.379407E+02 -0.487603E-02  0.163602E-02
  0.380007E+02 -0.220689E-02  0.158866E-02
  0.380607E+02 -0.384261E-02  0.163305E-02
  0.381207E+02 -0.353097E-02  0.164196E-02
  0.381807E+02 -0.221701E-02  0.162996E-02
  0.382407E+02 -0.276893E-02  0.163803E-02
  0.383007E+02 -0.206733E-02  0.165488E-02
  0.383607E+02 -0.118359E-02  0.164128E-02
  0.384207E+02 -0.119410E-02  0.162508E-02
  0.384807E+02 -0.305212E-02  0.165569E-02
  0.385407E+02 -0.209464E-02  0.164038E-02
  0.386007E+02 -0.184418E-02  0.165069E-02
  0.386607E+02 -0.281658E-02  0.166613E-02
  0.387207E+02 -0.654715E-03  0.164213E-02
  0.387807E+02 -0.532348E-03  0.164782E-02
  0.388407E+02 -0.277836E-03  0.165345E-02
  0.389007E+02 -0.994123E-03  0.165932E-02
  0.389607E+02 -0.458496E-04  0.167112E-02
  0.390207E+02 -0.136749E-02  0.170220E-02
  0.390807E+02  0.120015E-02  0.167151E-02
  0.391407E+02  0.461857E-03  0.169292E-02
  0.392007E+02  0.500205E-03  0.167979E-02
  0.392607E+02  0.170900E-02  0.169078E-02
  0.393207E+02  0.889005E-03  0.171215E-02
  0.393807E+02  0.223285E-02  0.169478E-02
  0.394407E+02  0.736712E-03  0.171438E-02
  0.395007E+02  0.565311E-03  0.171117E-02
  0.395607E+02  0.344102E-03  0.172169E-02
  0.396207E+02  0.255158E-02  0.170249E-02
  0.396807E+02  0.153334E-02  0.168832E-02
  0.397407E+02 -0.120239E-02  0.213970E-02
  0.398007E+02  0.202799E-02  0.208552E-02
  0.398607E+02  0.890678E-03  0.213567E-02
  0.399207E+02  0.299476E-02  0.211357E-02
  0.399807E+02  0.258546E-02  0.209044E-02
  0.400407E+02  0.110674E-02  0.210054E-02
  0.401007E+02  0.242953E-02  0.212503E-02
  0.401607E+02  0.125645E-02  0.209872E-02
  0.402207E+02 -0.972946E-03  0.212965E-02
  0.402807E+02  0.309160E-02  0.212796E-02
  0.403407E+02  0.145160E-02  0.211108E-02
  0.404007E+02  0.209121E-02  0.211938E-02
  0.404607E+02  0.206803E-02  0.210931E-02
  0.405207E+02 -0.138664E-02  0.211149E-02
  0.405807E+02 -0.197605E-02  0.215803E-02
  0.406407E+02  0.900956E-03  0.216402E-02
  0.407007E+02  0.119182E-02  0.212652E-02
  0.407607E+02  0.122938E-02  0.213770E-02
  0.408207E+02 -0.571126E-03  0.214019E-02
  0.408807E+02 -0.565308E-03  0.216150E-02
  0.409407E+02  0.130996E-03  0.214686E-02
  0.410007E+02 -0.156157E-02  0.214674E-02
  0.410607E+02 -0.106840E-02  0.213213E-02
  0.411208E+02 -0.336392E-02  0.218408E-02
  0.411808E+02 -0.167992E-02  0.216538E-02
  0.412408E+02  0.993426E-03  0.210202E-02
  0.413008E+02 -0.500571E-03  0.219136E-02
  0.413608E+02 -0.917365E-03  0.213907E-02
  0.414208E+02 -0.206468E-02  0.217097E-02
  0.414808E+02 -0.169044E-02  0.218818E-02
  0.415408E+02 -0.101377E-02  0.217968E-02
  0.416008E+02 -0.300523E-02  0.215462E-02
  0.416608E+02 -0.401367E-02  0.222434E-02
  0.417208E+02 -0.383785E-02  0.217395E-02
  0.417808E+02 -0.407624E-02  0.221155E-02
  0.418408E+02 -0.318503E-02  0.219352E-02
  0.419008E+02 -0.253634E-02  0.221122E-02
  0.419608E+02 -0.282796E-03  0.218075E-02
  0.420208E+02 -0.115317E-02  0.219422E-02
  0.420808E+02 -0.202968E-02  0.220111E-02
  0.421408E+02  0.159467E-02  0.218385E-02
  0.422008E+02 -0.376828E-02  0.223871E-02
  0.422608E+02 -0.410098E-02  0.224366E-02
  0.423208E+02 -0.169972E-02  0.221445E-02
  0.423808E+02  0.751145E-03  0.217186E-02
  0.424408E+02 -0.169474E-02  0.224341E-02
  0.425008E+02 -0.444044E-02  0.228203E-02
  0.425608E+02 -0.186254E-03  0.223634E-02
  0.426208E+02 -0.146556E-02  0.225239E-02
  0.426808E+02 -0.158513E-02  0.228257E-02
  0.427408E+02  0.128223E-02  0.227183E-02
  0.428008E+02  0.120864E-04  0.226052E-02
  0.428608E+02 -0.393060E-03  0.223346E-02
  0.429208E+02 -0.358407E-03  0.225381E-02
  0.429808E+02  0.100266E-02  0.222745E-02
  0.430408E+02 -0.268454E-02  0.230226E-02
  0.431008E+02 -0.610360E-03  0.231920E-02
  0.431608E+02  0.135274E-02  0.228128E-02
  0.432208E+02  0.121216E-02  0.227190E-02
  0.432808E+02 -0.174606E-03  0.230729E-02
  0.433408E+02  0.472161E-03  0.230234E-02
  0.434008E+02  0.350595E-02  0.225400E-02
  0.434608E+02  0.679185E-03  0.230571E-02
  0.435208E+02  0.188521E-02  0.226276E-02
  0.435808E+02 -0.361832E-03  0.229101E-02
  0.436408E+02  0.328827E-02  0.226929E-02
  0.437008E+02  0.331875E-02  0.230418E-02
  0.437608E+02  0.134148E-02  0.230949E-02
  0.438208E+02  0.359362E-02  0.229583E-02
  0.438808E+02 -0.144984E-02  0.240771E-02
  0.439408E+02 -0.373968E-03  0.235257E-02
  0.440008E+02  0.123133E-02  0.235970E-02
  0.440608E+02  0.388866E-02  0.235895E-02
  0.441208E+02 -0.102528E-02  0.236325E-02
  0.441808E+02  0.142182E-02  0.232356E-02
  0.442408E+02  0.102954E-02  0.230104E-02
  0.443008E+02 -0.201400E-02  0.238572E-02
  0.443608E+02  0.169838E-02  0.232943E-02
  0.444208E+02  0.947400E-03  0.232974E-02
  0.444808E+02  0.898538E-03  0.234431E-02
  0.445408E+02 -0.175026E-02  0.239422E-02
  0.446008E+02 -0.612712E-03  0.239052E-02
  0.446608E+02  0.334719E-02  0.233847E-02
  0.447208E+02 -0.163160E-02  0.238692E-02
  0.447808E+02 -0.645238E-03  0.238506E-02
  0.448408E+02 -0.136345E-02  0.236443E-02
  0.449008E+02 -0.754208E-03  0.238963E-02
  0.449608E+02  0.108879E-02  0.235351E-02
  0.450208E+02 -0.204699E-03  0.238657E-02
  0.450808E+02 -0.853322E-03  0.238132E-02
  0.451408E+02  0.368225E-03  0.241978E-02
  0.452008E+02 -0.272859E-02  0.238603E-02
  0.452608E+02 -0.430539E-03  0.242995E-02
  0.453208E+02  0.146519E-02  0.237188E-02
  0.453808E+02  0.423905E-03  0.237134E-02
  0.454408E+02 -0.217506E-02  0.242684E-02
  0.455009E+02  0.103391E-02  0.239529E-02
  0.455609E+02  0.255670E-04  0.235546E-02
  0.456209E+02 -0.158786E-02  0.243140E-02
  0.456809E+02 -0.225087E-02  0.247030E-02
  0.457409E+02 -0.246406E-02  0.241086E-02
  0.458009E+02 -0.348431E-02  0.248093E-02
  0.458609E+02 -0.217808E-02  0.249731E-02
  0.459209E+02 -0.220998E-02  0.242382E-02
  0.459809E+02 -0.358450E-02  0.248179E-02
  0.460409E+02  0.519273E-03  0.247996E-02
  0.461009E+02  0.171595E-02  0.243829E-02
  0.461609E+02 -0.178569E-02  0.242311E-02
  0.462209E+02  0.314637E-03  0.242917E-02
  0.462809E+02  0.403893E-03  0.246005E-02
  0.463409E+02  0.123641E-02  0.246042E-02
  0.464009E+02  0.334465E-03  0.239817E-02
  0.464609E+02  0.771268E-03  0.245779E-02
  0.465209E+02  0.831070E-03  0.249769E-02
  0.465809E+02  0.182936E-02  0.247810E-02
  0.466409E+02  0.123468E-02  0.245678E-02
  0.467009E+02  0.228815E-02  0.250020E-02
  0.467609E+02 -0.964034E-03  0.248543E-02
  0.468209E+02 -0.469073E-03  0.256730E-02
  0.468809E+02 -0.173785E-02  0.252763E-02
  0.469409E+02  0.379810E-03  0.253653E-02
  0.470009E+02  0.452530E-02  0.242091E-02
  0.470609E+02 -0.176789E-04  0.253321E-02
  0.471209E+02 -0.994958E-03  0.253738E-02
  0.471809E+02  0.348222E-02  0.248741E-02
  0.472409E+02  0.312170E-02  0.251606E-02
  0.473009E+02  0.763968E-03  0.254918E-02
  0.473609E+02 -0.956373E-03  0.257719E-02
  0.474209E+02 -0.123215E-02  0.253267E-02
  0.474809E+02  0.102146E-02  0.255336E-02
  0.475409E+02  0.228285E-02  0.253629E-02
  0.476009E+02  0.222191E-02  0.257146E-02
  0.476609E+02  0.148826E-02  0.257124E-02
  0.477209E+02  0.739582E-03  0.258318E-02
  0.477809E+02  0.721866E-03  0.258386E-02
  0.478409E+02  0.203046E-02  0.256825E-02
  0.479009E+02  0.643583E-02  0.252988E-02
  0.479609E+02  0.293302E-02  0.254772E-02
  0.480209E+02  0.146432E-02  0.255952E-02
  0.480809E+02  0.983887E-03  0.260587E-02
  0.481409E+02  0.384944E-02  0.258573E-02
  0.482009E+02  0.878914E-03  0.263379E-02
  0.482609E+02 -0.513177E-02  0.270596E-02
  0.483209E+02  0.111319E-02  0.259488E-02
  0.483809E+02  0.580759E-03  0.259184E-02
  0.484409E+02  0.249934E-02  0.253826E-02
  0.485009E+02  0.302114E-02  0.256554E-02
  0.485609E+02 -0.119885E-02  0.261913E-02
  0.486209E+02 -0.228107E-02  0.271445E-02
  0.486809E+02 -0.176671E-02  0.263437E-02
  0.487409E+02  0.545492E-03  0.259324E-02
  0.488009E+02 -0.212600E-02  0.262601E-02
  0.488609E+02 -0.254500E-02  0.266383E-02
  0.489209E+02  0.113782E-02  0.260247E-02
  0.489809E+02  0.150093E-02  0.262368E-02
  0.490409E+02 -0.203883E-02  0.263329E-02
  0.491009E+02  0.283771E-04  0.260959E-02
  0.491609E+02  0.216096E-02  0.267025E-02
  0.492209E+02 -0.245389E-02  0.270878E-02
  0.492809E+02 -0.291697E-02  0.264872E-02
  0.493409E+02 -0.805624E-03  0.266552E-02
  0.494009E+02  0.634188E-03  0.264515E-02
  0.494609E+02 -0.268918E-02  0.269545E-02
  0.495209E+02 -0.225624E-02  0.260479E-02
  0.495809E+02 -0.690757E-03  0.266666E-02
  0.496409E+02 -0.685491E-03  0.267103E-02
  0.497009E+02 -0.191082E-02  0.270395E-02
  0.497609E+02 -0.464352E-03  0.267819E-02
  0.498209E+02 -0.787394E-03  0.266980E-02
  0.498810E+02  0.807727E-03  0.270912E-02
  0.499410E+02 -0.943459E-03  0.268950E-02
  0.500010E+02  0.187333E-02  0.261415E-02
  0.500610E+02 -0.135838E-02  0.273299E-02
  0.501210E+02  0.929719E-03  0.270675E-02
  0.501810E+02 -0.159277E-02  0.280133E-02
  0.502410E+02 -0.228641E-02  0.277315E-02
  0.503010E+02  0.520456E-03  0.267289E-02
  0.503610E+02  0.253906E-03  0.273665E-02
  0.504210E+02 -0.244624E-02  0.274397E-02
  0.504810E+02  0.201201E-02  0.272049E-02
  0.505410E+02 -0.380767E-03  0.274374E-02
  0.506010E+02 -0.432984E-02  0.279189E-02
  0.506610E+02 -0.978677E-03  0.277824E-02
  0.507210E+02 -0.286333E-02  0.279507E-02
  0.507810E+02 -0.166984E-02  0.277520E-02
  0.508410E+02 -0.802469E-03  0.276830E-02
  0.509010E+02  0.505829E-03  0.276503E-02
  0.509610E+02 -0.671268E-03  0.278580E-02
  0.509810E+02  0.177367E-02  0.284022E-02