File: data/xrd_measurements/SiO2/T_r
 unpublished http://www.isis.rl.ac.uk/disordered/manuals/atlas/sio2_orc.htm
 T(r)
 r T(r)
1.00e-5	2.301817e-6
0.01	0.015841
0.02	0.031696
0.03	0.047524
0.04	0.063191
0.05	0.078440
0.06	0.092884
0.07	0.106033
0.08	0.117333
0.09	0.126237
0.10	0.132278
0.11	0.135154
0.12	0.134791
0.13	0.131391
0.14	0.125439
0.15	0.117679
0.16	0.109040
0.17	0.100536
0.18	0.093138
0.19	0.087647
0.20	0.084576
0.21	0.084073
0.22	0.085890
0.23	0.089411
0.24	0.093733
0.25	0.097805
0.26	0.100582
0.27	0.101191
0.28	0.099077
0.29	0.094094
0.30	0.086540
0.31	0.077119
0.32	0.066835
0.33	0.056840
0.34	0.048251
0.35	0.041974
0.36	0.038564
0.37	0.038133
0.38	0.040340
0.39	0.044449
0.40	0.049450
0.41	0.054229
0.42	0.057741
0.43	0.059178
0.44	0.058087
0.45	0.054425
0.46	0.048551
0.47	0.041144
0.48	0.033077
0.49	0.025264
0.50	0.018508
0.51	0.013381
0.52	0.010145
0.53	8.736409e-3
0.54	8.807793e-3
0.55	9.812735e-3
0.56	0.011122
0.57	0.012143
0.58	0.012426
0.59	0.011731
0.60	0.010061
0.61	7.633775e-3
0.62	4.835531e-3
0.63	2.133876e-3
0.64	-8.836389e-6
0.65	-1.216263e-3
0.66	-1.257062e-3
0.67	-7.495284e-5
0.68	2.211988e-3
0.69	5.337968e-3
0.70	8.933857e-3
0.71	0.012579
0.72	0.015852
0.73	0.018371
0.74	0.019822
0.75	0.019977
0.76	0.018703
0.77	0.015962
0.78	0.011818
0.79	6.435469e-3
0.80	8.711219e-5
0.81	-6.850019e-3
0.82	-0.013902
0.83	-0.020521
0.84	-0.026123
0.85	-0.030140
0.86	-0.032085
0.87	-0.031619
0.88	-0.028605
0.89	-0.023148
0.90	-0.015604
0.91	-6.550685e-3
0.92	3.267467e-3
0.93	0.013026
0.94	0.021921
0.95	0.029262
0.96	0.034563
0.97	0.037586
0.98	0.038360
0.99	0.037154
1.00	0.034420
1.01	0.030707
1.02	0.026575
1.03	0.022506
1.04	0.018846
1.05	0.015767
1.06	0.013273
1.07	0.011226
1.08	9.401456e-3
1.09	7.548034e-3
1.10	5.451828e-3
1.11	2.984285e-3
1.12	1.313388e-4
1.13	-3.000557e-3
1.14	-6.200403e-3
1.15	-9.185582e-3
1.16	-0.011645
1.17	-0.013285
1.18	-0.013873
1.19	-0.013267
1.20	-0.011440
1.21	-8.490592e-3
1.22	-4.633069e-3
1.23	-1.855493e-4
1.24	4.460245e-3
1.25	8.876681e-3
1.26	0.012647
1.27	0.015419
1.28	0.016951
1.29	0.017159
1.30	0.016143
1.31	0.014181
1.32	0.011702
1.33	9.219110e-3
1.34	7.235497e-3
1.35	6.141126e-3
1.36	6.115288e-3
1.37	7.065654e-3
1.38	8.628219e-3
1.39	0.010249
1.40	0.011357
1.41	0.011615
1.42	0.011231
1.43	0.011268
1.44	0.013910
1.45	0.022600
1.46	0.042011
1.47	0.077793
1.48	0.136093
1.49	0.222867
1.50	0.343055
1.51	0.499705
1.52	0.693169
1.53	0.920495
1.54	1.175134
1.55	1.447028
1.56	1.723128
1.57	1.988316
1.58	2.226646
1.59	2.422782
1.60	2.563463
1.61	2.638825
1.62	2.643408
1.63	2.576733
1.64	2.443357
1.65	2.252411
1.66	2.016682
1.67	1.751337
1.68	1.472473
1.69	1.195644
1.70	0.934556
1.71	0.700058
1.72	0.499527
1.73	0.336682
1.74	0.211806
1.75	0.122299
1.76	0.063457
1.77	0.029348
1.78	0.013666
1.79	0.010452
1.80	0.014619
1.81	0.022249
1.82	0.030665
1.83	0.038318
1.84	0.044558
1.85	0.049335
1.86	0.052912
1.87	0.055634
1.88	0.057762
1.89	0.059412
1.90	0.060552
1.91	0.061064
1.92	0.060811
1.93	0.059716
1.94	0.057801
1.95	0.055201
1.96	0.052136
1.97	0.048872
1.98	0.045661
1.99	0.042698
2.00	0.040091
2.01	0.037858
2.02	0.035947
2.03	0.034271
2.04	0.032747
2.05	0.031334
2.06	0.030049
2.07	0.028968
2.08	0.028203
2.09	0.027875
2.10	0.028069
2.11	0.028803
2.12	0.030011
2.13	0.031543
2.14	0.033181
2.15	0.034675
2.16	0.035790
2.17	0.036344
2.18	0.036240
2.19	0.035488
2.20	0.034196
2.21	0.032550
2.22	0.030784
2.23	0.029133
2.24	0.027798
2.25	0.026916
2.26	0.026539
2.27	0.026638
2.28	0.027116
2.29	0.027836
2.30	0.028654
2.31	0.029457
2.32	0.030201
2.33	0.030938
2.34	0.031843
2.35	0.033235
2.36	0.035587
2.37	0.039534
2.38	0.045877
2.39	0.055576
2.40	0.069733
2.41	0.089572
2.42	0.116390
2.43	0.151508
2.44	0.196199
2.45	0.251609
2.46	0.318667
2.47	0.398000
2.48	0.489850
2.49	0.594011
2.50	0.709777
2.51	0.835917
2.52	0.970674
2.53	1.111791
2.54	1.256554
2.55	1.401864
2.56	1.544322
2.57	1.680341
2.58	1.806257
2.59	1.918474
2.60	2.013602
2.61	2.088614
2.62	2.140990
2.63	2.168865
2.64	2.171143
2.65	2.147590
2.66	2.098884
2.67	2.026606
2.68	1.933183
2.69	1.821775
2.70	1.696112
2.71	1.560288
2.72	1.418541
2.73	1.275024
2.74	1.133598
2.75	0.997652
2.76	0.869973
2.77	0.752673
2.78	0.647173
2.79	0.554231
2.80	0.474027
2.81	0.406262
2.82	0.350282
2.83	0.305194
2.84	0.269976
2.85	0.243565
2.86	0.224913
2.87	0.213029
2.88	0.206992
2.89	0.205954
2.90	0.209128
2.91	0.215784
2.92	0.225236
2.93	0.236846
2.94	0.250026
2.95	0.264253
2.96	0.279083
2.97	0.294154
2.98	0.309202
2.99	0.324051
3.00	0.338600
3.01	0.352802
3.02	0.366633
3.03	0.380059
3.04	0.393007
3.05	0.405340
3.06	0.416845
3.07	0.427239
3.08	0.436183
3.09	0.443317
3.10	0.448300
3.11	0.450857
3.12	0.450818
3.13	0.448157
3.14	0.443004
3.15	0.435647
3.16	0.426510
3.17	0.416117
3.18	0.405040
3.19	0.393843
3.20	0.383034
3.21	0.373019
3.22	0.364081
3.23	0.356376
3.24	0.349948
3.25	0.344761
3.26	0.340743
3.27	0.337825
3.28	0.335983
3.29	0.335256
3.30	0.335752
3.31	0.337629
3.32	0.341068
3.33	0.346225
3.34	0.353193
3.35	0.361959
3.36	0.372387
3.37	0.384214
3.38	0.397069
3.39	0.410511
3.40	0.424083
3.41	0.437363
3.42	0.450019
3.43	0.461840
3.44	0.472761
3.45	0.482853
3.46	0.492298
3.47	0.501357
3.48	0.510313
3.49	0.519431
3.50	0.528917
3.51	0.538894
3.52	0.549395
3.53	0.560371
3.54	0.571711
3.55	0.583274
3.56	0.594912
3.57	0.606496
3.58	0.617934
3.59	0.629170
3.60	0.640185
3.61	0.650985
3.62	0.661589
3.63	0.672019
3.64	0.682296
3.65	0.692441
3.66	0.702476
3.67	0.712437
3.68	0.722375
3.69	0.732356
3.70	0.742456
3.71	0.752745
3.72	0.763269
3.73	0.774032
3.74	0.784980
3.75	0.795995
3.76	0.806908
3.77	0.817516
3.78	0.827619
3.79	0.837058
3.80	0.845751
3.81	0.853729
3.82	0.861138
3.83	0.868238
3.84	0.875368
3.85	0.882902
3.86	0.891185
3.87	0.900481
3.88	0.910922
3.89	0.922484
3.90	0.934986
3.91	0.948119
3.92	0.961501
3.93	0.974737
3.94	0.987497
3.95	0.999571
3.96	1.010914
3.97	1.021653
3.98	1.032069
3.99	1.042551
4.00	1.053524
4.01	1.065385
4.02	1.078423
4.03	1.092773
4.04	1.108390
4.05	1.125048
4.06	1.142369
4.07	1.159868
4.08	1.177009
4.09	1.193258
4.10	1.208124
4.11	1.221181
4.12	1.232077
4.13	1.240522
4.14	1.246268
4.15	1.249093
4.16	1.248794
4.17	1.245188
4.18	1.238136
4.19	1.227576
4.20	1.213560
4.21	1.196294
4.22	1.176147
4.23	1.153658
4.24	1.129493
4.25	1.104398
4.26	1.079116
4.27	1.054317
4.28	1.030521
4.29	1.008059
4.30	0.987054
4.31	0.967448
4.32	0.949062
4.33	0.931675
4.34	0.915112
4.35	0.899327
4.36	0.884450
4.37	0.870800
4.38	0.858855
4.39	0.849176
4.40	0.842312
4.41	0.838689
4.42	0.838512
4.43	0.841705
4.44	0.847889
4.45	0.856418
4.46	0.866461
4.47	0.877120
4.48	0.887559
4.49	0.897132
4.50	0.905473
4.51	0.912537
4.52	0.918593
4.53	0.924151
4.54	0.929860
4.55	0.936376
4.56	0.944237
4.57	0.953761
4.58	0.964997
4.59	0.977716
4.60	0.991469
4.61	1.005677
4.62	1.019751
4.63	1.033203
4.64	1.045746
4.65	1.057344
4.66	1.068215
4.67	1.078786
4.68	1.089604
4.69	1.101232
4.70	1.114134
4.71	1.128587
4.72	1.144632
4.73	1.162064
4.74	1.180471
4.75	1.199312
4.76	1.218012
4.77	1.236064
4.78	1.253106
4.79	1.268977
4.80	1.283723
4.81	1.297568
4.82	1.310860
4.83	1.323987
4.84	1.337298
4.85	1.351044
4.86	1.365331
4.87	1.380118
4.88	1.395233
4.89	1.410423
4.90	1.425405
4.91	1.439921
4.92	1.453780
4.93	1.466870
4.94	1.479160
4.95	1.490668
4.96	1.501434
4.97	1.511472
4.98	1.520749
4.99	1.529170
5.00	1.536591
5.01	1.542843
5.02	1.547778
5.03	1.551305
5.04	1.553427
5.05	1.554258
5.06	1.554008
5.07	1.552959
5.08	1.551403
5.09	1.549589
5.10	1.547658
5.11	1.545605
5.12	1.543259
5.13	1.540295
5.14	1.536276
5.15	1.530716
5.16	1.523162
5.17	1.513261
5.18	1.500826
5.19	1.485869
5.20	1.468603
5.21	1.449415
5.22	1.428813
5.23	1.407361
5.24	1.385603
5.25	1.364005
5.26	1.342915
5.27	1.322545
5.28	1.302980
5.29	1.284206
5.30	1.266158
5.31	1.248760
5.32	1.231970
5.33	1.215799
5.34	1.200325
5.35	1.185679
5.36	1.172023
5.37	1.159523
5.38	1.148312
5.39	1.138478
5.40	1.130045
5.41	1.122980
5.42	1.117207
5.43	1.112628
5.44	1.109142
5.45	1.106668
5.46	1.105147
5.47	1.104547
5.48	1.104841
5.49	1.105998
5.50	1.107953
5.51	1.110600
5.52	1.113778
5.53	1.117284
5.54	1.120883
5.55	1.124344
5.56	1.127468
5.57	1.130120
5.58	1.132254
5.59	1.133924
5.60	1.135276
5.61	1.136534
5.62	1.137966
5.63	1.139848
5.64	1.142424
5.65	1.145875
5.66	1.150295
5.67	1.155686
5.68	1.161958
5.69	1.168951
5.70	1.176455
5.71	1.184234
5.72	1.192059
5.73	1.199720
5.74	1.207040
5.75	1.213883
5.76	1.220154
5.77	1.225794
5.78	1.230779
5.79	1.235121
5.80	1.238866
5.81	1.242101
5.82	1.244960
5.83	1.247617
5.84	1.250288
5.85	1.253214
5.86	1.256640
5.87	1.260787
5.88	1.265821
5.89	1.271820
5.90	1.278757
5.91	1.286488
5.92	1.294761
5.93	1.303239
5.94	1.311544
5.95	1.319307
5.96	1.326220
5.97	1.332088
5.98	1.336862
5.99	1.340657
6.00	1.343738
6.01	1.346495
6.02	1.349381
6.03	1.352855
6.04	1.357312
6.05	1.363025
6.06	1.370104
6.07	1.378476
6.08	1.387903
6.09	1.398009
6.10	1.408344
6.11	1.418443
6.12	1.427898
6.13	1.436407
6.14	1.443811
6.15	1.450104
6.16	1.455415
6.17	1.459966
6.18	1.464025
6.19	1.467847
6.20	1.471621
6.21	1.475442
6.22	1.479296
6.23	1.483075
6.24	1.486611
6.25	1.489722
6.26	1.492269
6.27	1.494195
6.28	1.495557
6.29	1.496533
6.30	1.497393
6.31	1.498467
6.32	1.500079
6.33	1.502490
6.34	1.505842
6.35	1.510123
6.36	1.515157
6.37	1.520624
6.38	1.526105
6.39	1.531145
6.40	1.535331
6.41	1.538352
6.42	1.540052
6.43	1.540456
6.44	1.539763
6.45	1.538307
6.46	1.536505
6.47	1.534784
6.48	1.533511
6.49	1.532938
6.50	1.533165
6.51	1.534134
6.52	1.535645
6.53	1.537402
6.54	1.539065
6.55	1.540311
6.56	1.540883
6.57	1.540628
6.58	1.539510
6.59	1.537607
6.60	1.535082
6.61	1.532154
6.62	1.529058
6.63	1.526009
6.64	1.523185
6.65	1.520713
6.66	1.518669
6.67	1.517087
6.68	1.515972
6.69	1.515311
6.70	1.515076
6.71	1.515218
6.72	1.515661
6.73	1.516294
6.74	1.516962
6.75	1.517469
6.76	1.517596
6.77	1.517125
6.78	1.515885
6.79	1.513785
6.80	1.510855
6.81	1.507263
6.82	1.503319
6.83	1.499444
6.84	1.496123
6.85	1.493833
6.86	1.492971
6.87	1.493785
6.88	1.496323
6.89	1.500418
6.90	1.505700
6.91	1.511654
6.92	1.517697
6.93	1.523271
6.94	1.527938
6.95	1.531449
6.96	1.533786
6.97	1.535164
6.98	1.535991
6.99	1.536792
7.00	1.538119
7.01	1.540454
7.02	1.544124
7.03	1.549257
7.04	1.555763
7.05	1.563364
7.06	1.571659
7.07	1.580199
7.08	1.588581
7.09	1.596517
7.10	1.603879
7.11	1.610713
7.12	1.617205
7.13	1.623628
7.14	1.630264
7.15	1.637324
7.16	1.644895
7.17	1.652897
7.18	1.661095
7.19	1.669136
7.20	1.676615
7.21	1.683162
7.22	1.688516
7.23	1.692593
7.24	1.695508
7.25	1.697573
7.26	1.699243
7.27	1.701042
7.28	1.703473
7.29	1.706928
7.30	1.711619
7.31	1.717540
7.32	1.724471
7.33	1.732013
7.34	1.739669
7.35	1.746922
7.36	1.753326
7.37	1.758580
7.38	1.762565
7.39	1.765352
7.40	1.767174
7.41	1.768369
7.42	1.769301
7.43	1.770291
7.44	1.771551
7.45	1.773149
7.46	1.775008
7.47	1.776920
7.48	1.778611
7.49	1.779790
7.50	1.780220
7.51	1.779767
7.52	1.778428
7.53	1.776330
7.54	1.773707
7.55	1.770855
7.56	1.768071
7.57	1.765604
7.58	1.763608
7.59	1.762120
7.60	1.761059
7.61	1.760255
7.62	1.759484
7.63	1.758519
7.64	1.757175
7.65	1.755347
7.66	1.753023
7.67	1.750286
7.68	1.747291
7.69	1.744227
7.70	1.741280
7.71	1.738598
7.72	1.736256
7.73	1.734256
7.74	1.732524
7.75	1.730936
7.76	1.729350
7.77	1.727634
7.78	1.725703
7.79	1.723533
7.80	1.721166
7.81	1.718707
7.82	1.716294
7.83	1.714076
7.84	1.712183
7.85	1.710704
7.86	1.709671
7.87	1.709063
7.88	1.708816
7.89	1.708846
7.90	1.709070
7.91	1.709438
7.92	1.709941
7.93	1.710624
7.94	1.711577
7.95	1.712920
7.96	1.714775
7.97	1.717242
7.98	1.720373
7.99	1.724153
8.00	1.728496
8.01	1.733251
8.02	1.738223
8.03	1.743195
8.04	1.747961
8.05	1.752354
8.06	1.756274
8.07	1.759696
8.08	1.762678
8.09	1.765352
8.10	1.767905
8.11	1.770555
8.12	1.773526
8.13	1.777019
8.14	1.781191
8.15	1.786137
8.16	1.791877
8.17	1.798359
8.18	1.805459
8.19	1.812993
8.20	1.820734
8.21	1.828434
8.22	1.835843
8.23	1.842741
8.24	1.848958
8.25	1.854394
8.26	1.859035
8.27	1.862960
8.28	1.866332
8.29	1.869386
8.30	1.872399
8.31	1.875655
8.32	1.879408
8.33	1.883839
8.34	1.889034
8.35	1.894963
8.36	1.901485
8.37	1.908366
8.38	1.915319
8.39	1.922048
8.40	1.928306
8.41	1.933935
8.42	1.938901
8.43	1.943305
8.44	1.947367
8.45	1.951391
8.46	1.955703
8.47	1.960591
8.48	1.966239
8.49	1.972683
8.50	1.979787
8.51	1.987248
8.52	1.994643
8.53	2.001489
8.54	2.007327
8.55	2.011806
8.56	2.014753
8.57	2.016217
8.58	2.016472
8.59	2.015993
8.60	2.015381
8.61	2.015276
8.62	2.016253
8.63	2.018731
8.64	2.022897
8.65	2.028686
8.66	2.035776
8.67	2.043654
8.68	2.051691
8.69	2.059251
8.70	2.065791
8.71	2.070949
8.72	2.074594
8.73	2.076841
8.74	2.078017
8.75	2.078597
8.76	2.079108
8.77	2.080034
8.78	2.081730
8.79	2.084360
8.80	2.087873
8.81	2.092024
8.82	2.096420
8.83	2.100602
8.84	2.104136
8.85	2.106688
8.86	2.108092
8.87	2.108378
8.88	2.107763
8.89	2.106614
8.90	2.105380
8.91	2.104513
8.92	2.104391
8.93	2.105260
8.94	2.107188
8.95	2.110075
8.96	2.113662
8.97	2.117594
8.98	2.121479
8.99	2.124954
9.00	2.127744
9.01	2.129702
9.02	2.130819
9.03	2.131222
9.04	2.131135
9.05	2.130842
9.06	2.130627
9.07	2.130738
9.08	2.131346
9.09	2.132524
9.10	2.134252
9.11	2.136425
9.12	2.138883
9.13	2.141440
9.14	2.143916
9.15	2.146163
9.16	2.148083
9.17	2.149637
9.18	2.150836
9.19	2.151740
9.20	2.152434
9.21	2.153018
9.22	2.153588
9.23	2.154223
9.24	2.154982
9.25	2.155900
9.26	2.156989
9.27	2.158244
9.28	2.159652
9.29	2.161195
9.30	2.162863
9.31	2.164650
9.32	2.166563
9.33	2.168615
9.34	2.170822
9.35	2.173194
9.36	2.175726
9.37	2.178392
9.38	2.181136
9.39	2.183876
9.40	2.186505
9.41	2.188909
9.42	2.190982
9.43	2.192652
9.44	2.193907
9.45	2.194807
9.46	2.195505
9.47	2.196231
9.48	2.197281
9.49	2.198980
9.50	2.201630
9.51	2.205464
9.52	2.210588
9.53	2.216950
9.54	2.224323
9.55	2.232307
9.56	2.240380
9.57	2.247952
9.58	2.254455
9.59	2.259423
9.60	2.262573
9.61	2.263860
9.62	2.263494
9.63	2.261926
9.64	2.259782
9.65	2.257780
9.66	2.256616
9.67	2.256857
9.68	2.258850
9.69	2.262660
9.70	2.268057
9.71	2.274549
9.72	2.281459
9.73	2.288029
9.74	2.293542
9.75	2.297437
9.76	2.299392
9.77	2.299378
9.78	2.297654
9.79	2.294727
9.80	2.291257
9.81	2.287959
9.82	2.285484
9.83	2.284323
9.84	2.284739
9.85	2.286736
9.86	2.290082
9.87	2.294357
9.88	2.299035
9.89	2.303576
9.90	2.307518
9.91	2.310538
9.92	2.312496
9.93	2.313438
9.94	2.313568
9.95	2.313195
9.96	2.312666
9.97	2.312304
9.98	2.312347
9.99	2.312917
10.00	2.314008