File: data-release/xrd_measurements/Fe2O3/F_of_Q_real.csv
,Q,F,dF
0,1.01,0.81674,1e-7
1,1.02,0.8577,1e-7
2,1.03,0.8899,1e-7
3,1.04,0.913836,1e-7
4,1.05,0.930002,1e-7
5,1.06,0.938886,1e-7
6,1.07,0.940976,1e-7
7,1.08,0.936754,1e-7
8,1.09,0.926694,1e-7
9,1.1,0.911266,0.0001
10,1.11,0.89093,0.0001
11,1.12,0.866137,0.0001
12,1.13,0.837329,0.0001
13,1.14,0.804936,0.0001
14,1.15,0.76938,0.0001
15,1.16,0.731065,0.0001
16,1.17,0.690387,0.0001
17,1.18,0.647727,0.0001
18,1.19,0.603451,0.0001
19,1.2,0.55791,0.0001
20,1.21,0.511443,0.0001
21,1.22,0.464371,0.0001
22,1.23,0.416998,0.0001
23,1.24,0.369615,0.0001
24,1.25,0.322494,0.0001
25,1.26,0.275893,0.0001
26,1.27,0.230051,0.0001
27,1.28,0.185192,0.0001
28,1.29,0.141521,0.0001
29,1.3,0.0992285,0.0001
30,1.31,0.0584876,0.0001
31,1.32,0.0194547,0.0001
32,1.33,-0.0177302,0.0001
33,1.34,-0.052943,0.0001
34,1.35,-0.0860757,0.0001
35,1.36,-0.117036,0.0001
36,1.37,-0.145746,0.0001
37,1.38,-0.172144,0.0001
38,1.39,-0.196181,0.0001
39,1.4,-0.217824,0.0001
40,1.41,-0.237053,0.0001
41,1.42,-0.25386,0.0001
42,1.43,-0.268249,0.0001
43,1.44,-0.280239,0.0001
44,1.45,-0.289857,0.0001
45,1.46,-0.297142,0.0001
46,1.47,-0.302144,0.0001
47,1.48,-0.304922,0.0001
48,1.49,-0.305543,0.0001
49,1.5,-0.304083,0.0001
50,1.51,-0.300626,0.0001
51,1.52,-0.295262,0.0001
52,1.53,-0.288087,0.0001
53,1.54,-0.279205,0.0001
54,1.55,-0.268722,0.0001
55,1.56,-0.25675,0.0001
56,1.57,-0.243403,0.0001
57,1.58,-0.228801,0.0001
58,1.59,-0.213063,0.0001
59,1.6,-0.196312,0.0001
60,1.61,-0.178672,0.0001
61,1.62,-0.160266,0.0001
62,1.63,-0.141218,0.0001
63,1.64,-0.121653,0.0001
64,1.65,-0.101691,0.0001
65,1.66,-0.0814549,0.0001
66,1.67,-0.0610623,0.0001
67,1.68,-0.0406297,0.0001
68,1.69,-0.0202703,0.0001
69,1.7,-9.39217e-05,0.0001
70,1.71,0.0197933,0.0001
71,1.72,0.0392896,0.0001
72,1.73,0.0582972,0.0001
73,1.74,0.0767236,0.0001
74,1.75,0.094481,0.0001
75,1.76,0.111487,0.0001
76,1.77,0.127665,0.0001
77,1.78,0.142943,0.0001
78,1.79,0.157256,0.0001
79,1.8,0.170544,0.0001
80,1.81,0.182755,0.0001
81,1.82,0.19384,0.0001
82,1.83,0.20376,0.0001
83,1.84,0.212478,0.0001
84,1.85,0.219966,0.0001
85,1.86,0.226202,0.0001
86,1.87,0.23117,0.0001
87,1.88,0.234859,0.0001
88,1.89,0.237264,0.0001
89,1.9,0.238388,0.0001
90,1.91,0.238237,0.0001
91,1.92,0.236824,0.0001
92,1.93,0.234167,0.0001
93,1.94,0.230288,0.0001
94,1.95,0.225217,0.0001
95,1.96,0.218984,0.0001
96,1.97,0.211629,0.0001
97,1.98,0.203191,0.0001
98,1.99,0.193716,0.0001
99,2,0.183254,0.0001
100,2.01,0.171855,0.0001
101,2.02,0.159576,0.0001
102,2.03,0.146474,0.0001
103,2.04,0.13261,0.0001
104,2.05,0.118048,0.0001
105,2.06,0.10285,0.0001
106,2.07,0.087084,0.0001
107,2.08,0.0708171,0.0001
108,2.09,0.0541176,0.0001
109,2.1,0.0370547,0.0001
110,2.11,0.0196978,0.0001
111,2.12,0.00211649,0.0001
112,2.13,-0.0156198,0.0001
113,2.14,-0.0334422,0.0001
114,2.15,-0.0512824,0.0001
115,2.16,-0.0690732,0.0001
116,2.17,-0.0867487,0.0001
117,2.18,-0.104244,0.0001
118,2.19,-0.121497,0.0001
119,2.2,-0.138446,0.0001
120,2.21,-0.155033,0.0001
121,2.22,-0.1712,0.0001
122,2.23,-0.186895,0.0001
123,2.24,-0.202064,0.0001
124,2.25,-0.21666,0.0001
125,2.26,-0.230637,0.0001
126,2.27,-0.243951,0.0001
127,2.28,-0.256564,0.0001
128,2.29,-0.268438,0.0001
129,2.3,-0.27954,0.0001
130,2.31,-0.289841,0.0001
131,2.32,-0.299313,0.0001
132,2.33,-0.307933,0.0001
133,2.34,-0.315682,0.0001
134,2.35,-0.322544,0.0001
135,2.36,-0.328504,0.0001
136,2.37,-0.333555,0.0001
137,2.38,-0.337688,0.0001
138,2.39,-0.340901,0.0001
139,2.4,-0.343195,0.0001
140,2.41,-0.344572,0.0001
141,2.42,-0.345039,0.0001
142,2.43,-0.344605,0.0001
143,2.44,-0.343283,0.0001
144,2.45,-0.341086,0.0001
145,2.46,-0.338033,0.0001
146,2.47,-0.334144,0.0001
147,2.48,-0.32944,0.0001
148,2.49,-0.323947,0.0001
149,2.5,-0.31769,0.0001
150,2.51,-0.310699,0.0001
151,2.52,-0.303004,0.0001
152,2.53,-0.294636,0.0001
153,2.54,-0.285629,0.0001
154,2.55,-0.276017,0.0001
155,2.56,-0.265835,0.0001
156,2.57,-0.255122,0.0001
157,2.58,-0.243913,0.0001
158,2.59,-0.232247,0.0001
159,2.6,-0.220163,0.0001
160,2.61,-0.207699,0.0001
161,2.62,-0.194894,0.0001
162,2.63,-0.181788,0.0001
163,2.64,-0.168418,0.0001
164,2.65,-0.154824,0.0001
165,2.66,-0.141044,0.0001
166,2.67,-0.127116,0.0001
167,2.68,-0.113075,0.0001
168,2.69,-0.0989592,0.0001
169,2.7,-0.0848029,0.0001
170,2.71,-0.0706406,0.0001
171,2.72,-0.0565055,0.0001
172,2.73,-0.0424293,0.0001
173,2.74,-0.0284429,0.0001
174,2.75,-0.0145756,0.0001
175,2.76,-0.000855287,0.0001
176,2.77,0.0126916,0.0001
177,2.78,0.0260402,0.0001
178,2.79,0.0391671,0.0001
179,2.8,0.0520506,0.0001
180,2.81,0.0646706,0.0001
181,2.82,0.0770086,0.0001
182,2.83,0.0890478,0.0001
183,2.84,0.100773,0.0001
184,2.85,0.112171,0.0001
185,2.86,0.12323,0.0001
186,2.87,0.133939,0.0001
187,2.88,0.14429,0.0001
188,2.89,0.154277,0.0001
189,2.9,0.163893,0.0001
190,2.91,0.173134,0.0001
191,2.92,0.181999,0.0001
192,2.93,0.190486,0.0001
193,2.94,0.198595,0.0001
194,2.95,0.206327,0.0001
195,2.96,0.213687,0.0001
196,2.97,0.220677,0.0001
197,2.98,0.227302,0.0001
198,2.99,0.233569,0.0001
199,3,0.239484,0.0001
200,3.01,0.245055,0.0001
201,3.02,0.25029,0.0001
202,3.03,0.2552,0.0001
203,3.04,0.259793,0.0001
204,3.05,0.264081,0.0001
205,3.06,0.268073,0.0001
206,3.07,0.271781,0.0001
207,3.08,0.275217,0.0001
208,3.09,0.278392,0.0001
209,3.1,0.281318,0.0001
210,3.11,0.284007,0.0001
211,3.12,0.286471,0.0001
212,3.13,0.288721,0.0001
213,3.14,0.29077,0.0001
214,3.15,0.292628,0.0001
215,3.16,0.294307,0.0001
216,3.17,0.295818,0.0001
217,3.18,0.297171,0.0001
218,3.19,0.298376,0.0001
219,3.2,0.299444,0.0001
220,3.21,0.300382,0.0001
221,3.22,0.3012,0.0001
222,3.23,0.301905,0.0001
223,3.24,0.302505,0.0001
224,3.25,0.303006,0.0001
225,3.26,0.303415,0.0001
226,3.27,0.303737,0.0001
227,3.28,0.303977,0.0001
228,3.29,0.304139,0.0001
229,3.3,0.304226,0.0001
230,3.31,0.304241,0.0001
231,3.32,0.304186,0.0001
232,3.33,0.304063,0.0001
233,3.34,0.303871,0.0001
234,3.35,0.303613,0.0001
235,3.36,0.303286,0.0001
236,3.37,0.30289,0.0001
237,3.38,0.302423,0.0001
238,3.39,0.301884,0.0001
239,3.4,0.301269,0.0001
240,3.41,0.300575,0.0001
241,3.42,0.2998,0.0001
242,3.43,0.298939,0.0001
243,3.44,0.297989,0.0001
244,3.45,0.296944,0.0001
245,3.46,0.295799,0.0001
246,3.47,0.294552,0.0001
247,3.48,0.293195,0.0001
248,3.49,0.291724,0.0001
249,3.5,0.290133,0.0001
250,3.51,0.288418,0.0001
251,3.52,0.286573,0.0001
252,3.53,0.284594,0.0001
253,3.54,0.282474,0.0001
254,3.55,0.280209,0.0001
255,3.56,0.277795,0.0001
256,3.57,0.275226,0.0001
257,3.58,0.272499,0.0001
258,3.59,0.269611,0.0001
259,3.6,0.266556,0.0001
260,3.61,0.263333,0.0001
261,3.62,0.259938,0.0001
262,3.63,0.256369,0.0001
263,3.64,0.252625,0.0001
264,3.65,0.248703,0.0001
265,3.66,0.244604,0.0001
266,3.67,0.240326,0.0001
267,3.68,0.23587,0.0001
268,3.69,0.231237,0.0001
269,3.7,0.226428,0.0001
270,3.71,0.221444,0.0001
271,3.72,0.216289,0.0001
272,3.73,0.210965,0.0001
273,3.74,0.205476,0.0001
274,3.75,0.199826,0.0001
275,3.76,0.194019,0.0001
276,3.77,0.188061,0.0001
277,3.78,0.181957,0.0001
278,3.79,0.175714,0.0001
279,3.8,0.169338,0.0001
280,3.81,0.162836,0.0001
281,3.82,0.156217,0.0001
282,3.83,0.149487,0.0001
283,3.84,0.142656,0.0001
284,3.85,0.135733,0.0001
285,3.86,0.128725,0.0001
286,3.87,0.121644,0.0001
287,3.88,0.114498,0.0001
288,3.89,0.107297,0.0001
289,3.9,0.100052,0.0001
290,3.91,0.0927723,0.0001
291,3.92,0.085469,0.0001
292,3.93,0.0781525,0.0001
293,3.94,0.0708332,0.0001
294,3.95,0.0635219,0.0001
295,3.96,0.056229,0.0001
296,3.97,0.0489651,0.0001
297,3.98,0.0417407,0.0001
298,3.99,0.034566,0.0001
299,4,0.0274513,0.0001
300,4.01,0.0204065,0.0001
301,4.02,0.0134414,0.0001
302,4.03,0.0065655,0.0001
303,4.04,-0.00021195,0.0001
304,4.05,-0.00688203,0.0001
305,4.06,-0.0134361,0.0001
306,4.07,-0.0198661,0.0001
307,4.08,-0.0261639,0.0001
308,4.09,-0.0323223,0.0001
309,4.1,-0.0383341,0.0001
310,4.11,-0.0441929,0.0001
311,4.12,-0.0498923,0.0001
312,4.13,-0.0554269,0.0001
313,4.14,-0.0607913,0.0001
314,4.15,-0.065981,0.0001
315,4.16,-0.0709917,0.0001
316,4.17,-0.0758197,0.0001
317,4.18,-0.0804618,0.0001
318,4.19,-0.0849153,0.0001
319,4.2,-0.089178,0.0001
320,4.21,-0.0932483,0.0001
321,4.22,-0.0971249,0.0001
322,4.23,-0.100807,0.0001
323,4.24,-0.104295,0.0001
324,4.25,-0.107588,0.0001
325,4.26,-0.110687,0.0001
326,4.27,-0.113594,0.0001
327,4.28,-0.11631,0.0001
328,4.29,-0.118837,0.0001
329,4.3,-0.121177,0.0001
330,4.31,-0.123333,0.0001
331,4.32,-0.125309,0.0001
332,4.33,-0.127106,0.0001
333,4.34,-0.12873,0.0001
334,4.35,-0.130184,0.0001
335,4.36,-0.131472,0.0001
336,4.37,-0.132599,0.0001
337,4.38,-0.133569,0.0001
338,4.39,-0.134387,0.0001
339,4.4,-0.135059,0.0001
340,4.41,-0.135589,0.0001
341,4.42,-0.135983,0.0001
342,4.43,-0.136246,0.0001
343,4.44,-0.136383,0.0001
344,4.45,-0.136399,0.0001
345,4.46,-0.136301,0.0001
346,4.47,-0.136094,0.0001
347,4.48,-0.135783,0.0001
348,4.49,-0.135372,0.0001
349,4.5,-0.134869,0.0001
350,4.51,-0.134277,0.0001
351,4.52,-0.133602,0.0001
352,4.53,-0.132849,0.0001
353,4.54,-0.132022,0.0001
354,4.55,-0.131126,0.0001
355,4.56,-0.130166,0.0001
356,4.57,-0.129145,0.0001
357,4.58,-0.128069,0.0001
358,4.59,-0.12694,0.0001
359,4.6,-0.125763,0.0001
360,4.61,-0.124541,0.0001
361,4.62,-0.123277,0.0001
362,4.63,-0.121975,0.0001
363,4.64,-0.120637,0.0001
364,4.65,-0.119265,0.0001
365,4.66,-0.117862,0.0001
366,4.67,-0.116431,0.0001
367,4.68,-0.114973,0.0001
368,4.69,-0.113489,0.0001
369,4.7,-0.111983,0.0001
370,4.71,-0.110454,0.0001
371,4.72,-0.108904,0.0001
372,4.73,-0.107334,0.0001
373,4.74,-0.105745,0.0001
374,4.75,-0.104138,0.0001
375,4.76,-0.102513,0.0001
376,4.77,-0.10087,0.0001
377,4.78,-0.0992098,0.0001
378,4.79,-0.0975328,0.0001
379,4.8,-0.0958388,0.0001
380,4.81,-0.094128,0.0001
381,4.82,-0.0924003,0.0001
382,4.83,-0.0906557,0.0001
383,4.84,-0.088894,0.0001
384,4.85,-0.0871151,0.0001
385,4.86,-0.0853189,0.0001
386,4.87,-0.0835053,0.0001
387,4.88,-0.0816743,0.0001
388,4.89,-0.0798259,0.0001
389,4.9,-0.07796,0.0001
390,4.91,-0.0760767,0.0001
391,4.92,-0.0741763,0.0001
392,4.93,-0.0722589,0.0001
393,4.94,-0.070325,0.0001
394,4.95,-0.068375,0.0001
395,4.96,-0.0664095,0.0001
396,4.97,-0.0644293,0.0001
397,4.98,-0.0624352,0.0001
398,4.99,-0.0604281,0.0001
399,5,-0.0584093,0.0001
400,5.01,-0.0563799,0.0001
401,5.02,-0.0543415,0.0001
402,5.03,-0.0522956,0.0001
403,5.04,-0.0502439,0.0001
404,5.05,-0.0481883,0.0001
405,5.06,-0.0461309,0.0001
406,5.07,-0.0440737,0.0001
407,5.08,-0.0420193,0.0001
408,5.09,-0.0399699,0.0001
409,5.1,-0.0379282,0.0001
410,5.11,-0.0358968,0.0001
411,5.12,-0.0338787,0.0001
412,5.13,-0.0318767,0.0001
413,5.14,-0.0298938,0.0001
414,5.15,-0.0279332,0.0001
415,5.16,-0.025998,0.0001
416,5.17,-0.0240916,0.0001
417,5.18,-0.022217,0.0001
418,5.19,-0.0203778,0.0001
419,5.2,-0.0185772,0.0001
420,5.21,-0.0168187,0.0001
421,5.22,-0.0151054,0.0001
422,5.23,-0.0134409,0.0001
423,5.24,-0.0118284,0.0001
424,5.25,-0.010271,0.0001
425,5.26,-0.00877209,0.0001
426,5.27,-0.00733464,0.0001
427,5.28,-0.00596167,0.0001
428,5.29,-0.00465607,0.0001
429,5.3,-0.0034206,0.0001
430,5.31,-0.00225788,0.0001
431,5.32,-0.00117037,0.0001
432,5.33,-0.000160379,0.0001
433,5.34,0.000769977,0.0001
434,5.35,0.00161877,0.0001
435,5.36,0.00238426,0.0001
436,5.37,0.00306493,0.0001
437,5.38,0.0036595,0.0001
438,5.39,0.00416689,0.0001
439,5.4,0.00458628,0.0001
440,5.41,0.00491709,0.0001
441,5.42,0.00515897,0.0001
442,5.43,0.00531186,0.0001
443,5.44,0.00537595,0.0001
444,5.45,0.00535166,0.0001
445,5.46,0.00523971,0.0001
446,5.47,0.00504106,0.0001
447,5.48,0.00475695,0.0001
448,5.49,0.00438888,0.0001
449,5.5,0.00393858,0.0001
450,5.51,0.00340806,0.0001
451,5.52,0.00279957,0.0001
452,5.53,0.0021156,0.0001
453,5.54,0.00135888,0.0001
454,5.55,0.000532354,0.0001
455,5.56,-0.000360811,0.0001
456,5.57,-0.00131724,0.0001
457,5.58,-0.00233338,0.0001
458,5.59,-0.00340546,0.0001
459,5.6,-0.00452959,0.0001
460,5.61,-0.00570167,0.0001
461,5.62,-0.00691752,0.0001
462,5.63,-0.00817278,0.0001
463,5.64,-0.00946301,0.0001
464,5.65,-0.0107837,0.0001
465,5.66,-0.0121301,0.0001
466,5.67,-0.0134977,0.0001
467,5.68,-0.0148818,0.0001
468,5.69,-0.0162774,0.0001
469,5.7,-0.01768,0.0001
470,5.71,-0.0190848,0.0001
471,5.72,-0.020487,0.0001
472,5.73,-0.021882,0.0001
473,5.74,-0.0232652,0.0001
474,5.75,-0.024632,0.0001
475,5.76,-0.025978,0.0001
476,5.77,-0.0272989,0.0001
477,5.78,-0.0285905,0.0001
478,5.79,-0.0298487,0.0001
479,5.8,-0.0310698,0.0001
480,5.81,-0.0322498,0.0001
481,5.82,-0.0333854,0.0001
482,5.83,-0.0344732,0.0001
483,5.84,-0.03551,0.0001
484,5.85,-0.0364931,0.0001
485,5.86,-0.0374196,0.0001
486,5.87,-0.0382872,0.0001
487,5.88,-0.0390937,0.0001
488,5.89,-0.0398372,0.0001
489,5.9,-0.040516,0.0001
490,5.91,-0.0411287,0.0001
491,5.92,-0.0416743,0.0001
492,5.93,-0.0421518,0.0001
493,5.94,-0.0425607,0.0001
494,5.95,-0.0429007,0.0001
495,5.96,-0.0431718,0.0001
496,5.97,-0.0433742,0.0001
497,5.98,-0.0435084,0.0001
498,5.99,-0.0435752,0.0001
499,6,-0.0435757,0.0001
500,6.01,-0.0435111,0.0001
501,6.02,-0.043383,0.0001
502,6.03,-0.0431931,0.0001
503,6.04,-0.0429436,0.0001
504,6.05,-0.0426365,0.0001
505,6.06,-0.0422743,0.0001
506,6.07,-0.0418598,0.0001
507,6.08,-0.0413956,0.0001
508,6.09,-0.0408848,0.0001
509,6.1,-0.0403306,0.0001
510,6.11,-0.0397361,0.0001
511,6.12,-0.0391049,0.0001
512,6.13,-0.0384405,0.0001
513,6.14,-0.0377465,0.0001
514,6.15,-0.0370266,0.0001
515,6.16,-0.0362845,0.0001
516,6.17,-0.0355242,0.0001
517,6.18,-0.0347495,0.0001
518,6.19,-0.0339642,0.0001
519,6.2,-0.0331723,0.0001
520,6.21,-0.0323776,0.0001
521,6.22,-0.0315839,0.0001
522,6.23,-0.030795,0.0001
523,6.24,-0.0300146,0.0001
524,6.25,-0.0292464,0.0001
525,6.26,-0.0284939,0.0001
526,6.27,-0.0277606,0.0001
527,6.28,-0.0270498,0.0001
528,6.29,-0.0263646,0.0001
529,6.3,-0.0257082,0.0001
530,6.31,-0.0250833,0.0001
531,6.32,-0.0244927,0.0001
532,6.33,-0.023939,0.0001
533,6.34,-0.0234244,0.0001
534,6.35,-0.0229512,0.0001
535,6.36,-0.0225212,0.0001
536,6.37,-0.0221363,0.0001
537,6.38,-0.0217979,0.0001
538,6.39,-0.0215073,0.0001
539,6.4,-0.0212657,0.0001
540,6.41,-0.0210738,0.0001
541,6.42,-0.0209324,0.0001
542,6.43,-0.0208417,0.0001
543,6.44,-0.0208019,0.0001
544,6.45,-0.0208131,0.0001
545,6.46,-0.0208748,0.0001
546,6.47,-0.0209867,0.0001
547,6.48,-0.0211479,0.0001
548,6.49,-0.0213575,0.0001
549,6.5,-0.0216144,0.0001
550,6.51,-0.0219172,0.0001
551,6.52,-0.0222645,0.0001
552,6.53,-0.0226544,0.0001
553,6.54,-0.023085,0.0001
554,6.55,-0.0235544,0.0001
555,6.56,-0.0240602,0.0001
556,6.57,-0.0246001,0.0001
557,6.58,-0.0251717,0.0001
558,6.59,-0.0257722,0.0001
559,6.6,-0.026399,0.0001
560,6.61,-0.0270492,0.0001
561,6.62,-0.0277199,0.0001
562,6.63,-0.0284082,0.0001
563,6.64,-0.0291109,0.0001
564,6.65,-0.029825,0.0001
565,6.66,-0.0305474,0.0001
566,6.67,-0.0312749,0.0001
567,6.68,-0.0320044,0.0001
568,6.69,-0.0327328,0.0001
569,6.7,-0.033457,0.0001
570,6.71,-0.0341738,0.0001
571,6.72,-0.0348804,0.0001
572,6.73,-0.0355736,0.0001
573,6.74,-0.0362506,0.0001
574,6.75,-0.0369086,0.0001
575,6.76,-0.0375449,0.0001
576,6.77,-0.0381568,0.0001
577,6.78,-0.0387419,0.0001
578,6.79,-0.0392979,0.0001
579,6.8,-0.0398224,0.0001
580,6.81,-0.0403133,0.0001
581,6.82,-0.0407688,0.0001
582,6.83,-0.0411869,0.0001
583,6.84,-0.0415662,0.0001
584,6.85,-0.041905,0.0001
585,6.86,-0.0422021,0.0001
586,6.87,-0.0424565,0.0001
587,6.88,-0.042667,0.0001
588,6.89,-0.042833,0.0001
589,6.9,-0.0429538,0.0001
590,6.91,-0.0430291,0.0001
591,6.92,-0.0430586,0.0001
592,6.93,-0.0430422,0.0001
593,6.94,-0.0429801,0.0001
594,6.95,-0.0428725,0.0001
595,6.96,-0.0427199,0.0001
596,6.97,-0.0425229,0.0001
597,6.98,-0.0422823,0.0001
598,6.99,-0.0419991,0.0001
599,7,-0.0416743,0.0001
600,7.01,-0.0413092,0.0001
601,7.02,-0.0409052,0.0001
602,7.03,-0.0404636,0.0001
603,7.04,-0.0399862,0.0001
604,7.05,-0.0394746,0.0001
605,7.06,-0.0389308,0.0001
606,7.07,-0.0383565,0.0001
607,7.08,-0.0377539,0.0001
608,7.09,-0.0371249,0.0001
609,7.1,-0.0364718,0.0001
610,7.11,-0.0357967,0.0001
611,7.12,-0.0351018,0.0001
612,7.13,-0.0343894,0.0001
613,7.14,-0.0336619,0.0001
614,7.15,-0.0329214,0.0001
615,7.16,-0.0321704,0.0001
616,7.17,-0.031411,0.0001
617,7.18,-0.0306457,0.0001
618,7.19,-0.0298765,0.0001
619,7.2,-0.0291058,0.0001
620,7.21,-0.0283358,0.0001
621,7.22,-0.0275684,0.0001
622,7.23,-0.0268058,0.0001
623,7.24,-0.02605,0.0001
624,7.25,-0.0253028,0.0001
625,7.26,-0.024566,0.0001
626,7.27,-0.0238414,0.0001
627,7.28,-0.0231307,0.0001
628,7.29,-0.0224352,0.0001
629,7.3,-0.0217565,0.0001
630,7.31,-0.0210958,0.0001
631,7.32,-0.0204543,0.0001
632,7.33,-0.019833,0.0001
633,7.34,-0.019233,0.0001
634,7.35,-0.018655,0.0001
635,7.36,-0.0180997,0.0001
636,7.37,-0.0175676,0.0001
637,7.38,-0.0170593,0.0001
638,7.39,-0.0165749,0.0001
639,7.4,-0.0161148,0.0001
640,7.41,-0.0156789,0.0001
641,7.42,-0.0152672,0.0001
642,7.43,-0.0148795,0.0001
643,7.44,-0.0145155,0.0001
644,7.45,-0.0141748,0.0001
645,7.46,-0.0138569,0.0001
646,7.47,-0.0135611,0.0001
647,7.48,-0.0132868,0.0001
648,7.49,-0.0130332,0.0001
649,7.5,-0.0127994,0.0001
650,7.51,-0.0125843,0.0001
651,7.52,-0.0123869,0.0001
652,7.53,-0.0122062,0.0001
653,7.54,-0.012041,0.0001
654,7.55,-0.0118899,0.0001
655,7.56,-0.0117519,0.0001
656,7.57,-0.0116255,0.0001
657,7.58,-0.0115094,0.0001
658,7.59,-0.0114022,0.0001
659,7.6,-0.0113027,0.0001
660,7.61,-0.0112093,0.0001
661,7.62,-0.0111208,0.0001
662,7.63,-0.0110356,0.0001
663,7.64,-0.0109526,0.0001
664,7.65,-0.0108703,0.0001
665,7.66,-0.0107875,0.0001
666,7.67,-0.0107028,0.0001
667,7.68,-0.010615,0.0001
668,7.69,-0.010523,0.0001
669,7.7,-0.0104256,0.0001
670,7.71,-0.0103217,0.0001
671,7.72,-0.0102103,0.0001
672,7.73,-0.0100905,0.0001
673,7.74,-0.00996143,0.0001
674,7.75,-0.00982228,0.0001
675,7.76,-0.00967235,0.0001
676,7.77,-0.009511,0.0001
677,7.78,-0.00933769,0.0001
678,7.79,-0.00915197,0.0001
679,7.8,-0.00895347,0.0001
680,7.81,-0.00874193,0.0001
681,7.82,-0.00851715,0.0001
682,7.83,-0.00827904,0.0001
683,7.84,-0.00802761,0.0001
684,7.85,-0.00776294,0.0001
685,7.86,-0.00748521,0.0001
686,7.87,-0.00719468,0.0001
687,7.88,-0.00689171,0.0001
688,7.89,-0.00657674,0.0001
689,7.9,-0.00625027,0.0001
690,7.91,-0.00591289,0.0001
691,7.92,-0.00556528,0.0001
692,7.93,-0.00520817,0.0001
693,7.94,-0.00484235,0.0001
694,7.95,-0.00446869,0.0001
695,7.96,-0.0040881,0.0001
696,7.97,-0.00370155,0.0001
697,7.98,-0.00331006,0.0001
698,7.99,-0.00291467,0.0001
699,8,-0.00251647,0.0001
700,8.01,-0.00211659,0.0001
701,8.02,-0.00171616,0.0001
702,8.03,-0.00131634,0.0001
703,8.04,-0.000918293,0.0001
704,8.05,-0.000523205,0.0001
705,8.06,-0.000132248,0.0001
706,8.07,0.00025341,0.0001
707,8.08,0.000632609,0.0001
708,8.09,0.00100421,0.0001
709,8.1,0.0013671,0.0001
710,8.11,0.00172017,0.0001
711,8.12,0.00206239,0.0001
712,8.13,0.00239272,0.0001
713,8.14,0.0027102,0.0001
714,8.15,0.00301388,0.0001
715,8.16,0.00330291,0.0001
716,8.17,0.00357644,0.0001
717,8.18,0.00383373,0.0001
718,8.19,0.00407406,0.0001
719,8.2,0.0042968,0.0001
720,8.21,0.00450139,0.0001
721,8.22,0.00468731,0.0001
722,8.23,0.00485415,0.0001
723,8.24,0.00500155,0.0001
724,8.25,0.00512922,0.0001
725,8.26,0.00523697,0.0001
726,8.27,0.00532465,0.0001
727,8.28,0.00539221,0.0001
728,8.29,0.00543967,0.0001
729,8.3,0.00546713,0.0001
730,8.31,0.00547474,0.0001
731,8.32,0.00546274,0.0001
732,8.33,0.00543143,0.0001
733,8.34,0.0053812,0.0001
734,8.35,0.00531247,0.0001
735,8.36,0.00522574,0.0001
736,8.37,0.00512158,0.0001
737,8.38,0.00500059,0.0001
738,8.39,0.00486344,0.0001
739,8.4,0.00471084,0.0001
740,8.41,0.00454355,0.0001
741,8.42,0.00436237,0.0001
742,8.43,0.00416812,0.0001
743,8.44,0.00396168,0.0001
744,8.45,0.00374394,0.0001
745,8.46,0.0035158,0.0001
746,8.47,0.00327819,0.0001
747,8.48,0.00303206,0.0001
748,8.49,0.00277836,0.0001
749,8.5,0.00251804,0.0001
750,8.51,0.00225204,0.0001
751,8.52,0.00198131,0.0001
752,8.53,0.00170678,0.0001
753,8.54,0.00142937,0.0001
754,8.55,0.00114997,0.0001
755,8.56,0.000869444,0.0001
756,8.57,0.000588645,0.0001
757,8.58,0.000308375,0.0001
758,8.59,2.94078e-05,0.0001
759,8.6,-0.000247525,0.0001
760,8.61,-0.000521733,0.0001
761,8.62,-0.000792575,0.0001
762,8.63,-0.00105946,0.0001
763,8.64,-0.00132183,0.0001
764,8.65,-0.00157921,0.0001
765,8.66,-0.00183116,0.0001
766,8.67,-0.00207731,0.0001
767,8.68,-0.00231733,0.0001
768,8.69,-0.00255096,0.0001
769,8.7,-0.00277799,0.0001
770,8.71,-0.0029983,0.0001
771,8.72,-0.00321179,0.0001
772,8.73,-0.00341844,0.0001
773,8.74,-0.00361828,0.0001
774,8.75,-0.00381141,0.0001
775,8.76,-0.00399797,0.0001
776,8.77,-0.00417817,0.0001
777,8.78,-0.00435226,0.0001
778,8.79,-0.00452054,0.0001
779,8.8,-0.00468336,0.0001
780,8.81,-0.00484113,0.0001
781,8.82,-0.00499428,0.0001
782,8.83,-0.00514329,0.0001
783,8.84,-0.00528866,0.0001
784,8.85,-0.00543096,0.0001
785,8.86,-0.00557073,0.0001
786,8.87,-0.0057086,0.0001
787,8.88,-0.00584516,0.0001
788,8.89,-0.00598105,0.0001
789,8.9,-0.00611691,0.0001
790,8.91,-0.00625339,0.0001
791,8.92,-0.00639115,0.0001
792,8.93,-0.00653084,0.0001
793,8.94,-0.0066731,0.0001
794,8.95,-0.00681857,0.0001
795,8.96,-0.00696786,0.0001
796,8.97,-0.00712158,0.0001
797,8.98,-0.00728031,0.0001
798,8.99,-0.00744459,0.0001
799,9,-0.00761495,0.0001