File: data-release/xrd_measurements/Fe2O3/T_of_r.csv
,r,T
0,0.04361,-0.0577121
1,0.09798,-0.130358
2,0.1063,-0.146479
3,0.1396,-0.188282
4,0.1457,-0.206223
5,0.159,-0.237529
6,0.1801,-0.257284
7,0.1845,-0.282055
8,0.1873,-0.273551
9,0.2017,-0.320397
10,0.2145,-0.32499
11,0.2223,-0.365827
12,0.2289,-0.358163
13,0.2333,-0.399627
14,0.2505,-0.443257
15,0.2511,-0.412579
16,0.2622,-0.478566
17,0.2639,-0.447346
18,0.2788,-0.488406
19,0.2872,-0.556892
20,0.2916,-0.52853
21,0.2977,-0.5631
22,0.3277,-0.649483
23,0.351,-0.733868
24,0.3515,-0.720132
25,0.4148,-0.862407
26,0.4342,-0.876861
27,0.4475,-0.877865
28,0.4591,-0.873928
29,0.4708,-0.861654
30,0.4813,-0.840743
31,0.4935,-0.815375
32,0.5063,-0.783759
33,0.5185,-0.744943
34,0.5296,-0.699249
35,0.5424,-0.652217
36,0.5529,-0.596634
37,0.5651,-0.54147
38,0.5768,-0.484413
39,0.5895,-0.427679
40,0.6012,-0.371387
41,0.6062,-0.295339
42,0.6145,-0.320206
43,0.62,-0.248708
44,0.6267,-0.272327
45,0.6389,-0.172651
46,0.6395,-0.22387
47,0.6395,-0.200251
48,0.6755,-0.13635
49,0.7105,-0.135188
50,0.721,-0.183149
51,0.7388,-0.244494
52,0.7493,-0.287333
53,0.7576,-0.337704
54,0.7671,-0.431888
55,0.7737,-0.409858
56,0.7809,-0.514758
57,0.7876,-0.492102
58,0.792,-0.602201
59,0.8003,-0.581783
60,0.8092,-0.698822
61,0.8131,-0.949349
62,0.8175,-0.676993
63,0.8253,-0.802861
64,0.8342,-1.05838
65,0.8347,-0.784941
66,0.8419,-0.908494
67,0.8492,-0.888424
68,0.8564,-1.16882
69,0.8647,-0.997781
70,0.8791,-1.27674
71,0.8836,-1.10094
72,0.8891,-1.36463
73,0.8891,-1.11904
74,0.903,-1.45905
75,0.9113,-1.32217
76,0.9196,-1.5473
77,0.9241,-1.41971
78,0.9268,-1.61003
79,0.9357,-1.50664
80,0.9451,-1.6925
81,0.9501,-1.5875
82,0.9612,-1.64741
83,0.9712,-1.78245
84,0.9745,-1.71902
85,1.009,-1.85232
86,1.012,-1.89261
87,1.078,-1.95994
88,1.087,-1.91085
89,1.123,-1.97865
90,1.139,-1.95103
91,1.193,-2.0332
92,1.202,-2.09718
93,1.248,-2.15782
94,1.258,-2.23246
95,1.29,-2.25795
96,1.3,-2.33726
97,1.348,-2.42963
98,1.352,-2.48332
99,1.411,-2.6039
100,1.411,-2.55746
101,1.47,-2.67479
102,1.476,-2.73734
103,1.507,-2.7445
104,1.56,-2.94047
105,1.612,-3.10038
106,1.619,-3.04754
107,1.665,-3.13656
108,1.676,-3.04043
109,1.706,-2.97653
110,1.713,-3.11528
111,1.719,-2.867
112,1.732,-3.06053
113,1.74,-2.81846
114,1.744,-2.9899
115,1.76,-2.75025
116,1.771,-2.90084
117,1.777,-2.67263
118,1.788,-2.83824
119,1.788,-2.55252
120,1.807,-2.70035
121,1.811,-2.46527
122,1.823,-2.62471
123,1.828,-2.34699
124,1.838,-2.56901
125,1.841,-2.50431
126,1.857,-2.24144
127,1.862,-2.39537
128,1.885,-2.31147
129,1.887,-2.18123
130,1.929,-2.18393
131,1.944,-2.28745
132,1.981,-2.4332
133,2.003,-2.57473
134,2.015,-2.36284
135,2.015,-2.64824
136,2.034,-2.47155
137,2.056,-2.60958
138,2.081,-2.75604
139,2.106,-2.89996
140,2.131,-2.98504
141,2.167,-3.05184
142,2.18,-2.95111
143,2.217,-3.00444
144,2.22,-2.85478
145,2.247,-2.73605
146,2.253,-2.90177
147,2.276,-2.62054
148,2.281,-2.79014
149,2.302,-2.51411
150,2.307,-2.69006
151,2.329,-2.58848
152,2.33,-2.41746
153,2.357,-2.48023
154,2.363,-2.32986
155,2.394,-2.38085
156,2.409,-2.29593
157,2.447,-2.27518
158,2.464,-2.41833
159,2.5,-2.44208
160,2.509,-2.6148
161,2.511,-2.77043
162,2.537,-2.73767
163,2.542,-2.67088
164,2.563,-2.96395
165,2.573,-3.16424
166,2.598,-3.05567
167,2.602,-3.13145
168,2.605,-3.30242
169,2.627,-3.4818
170,2.633,-3.30461
171,2.643,-3.64875
172,2.655,-3.48668
173,2.666,-3.82739
174,2.672,-3.64026
175,2.692,-4.01598
176,2.694,-3.81866
177,2.718,-4.20883
178,2.721,-4.02077
179,2.745,-4.20346
180,2.748,-4.39295
181,2.776,-4.39812
182,2.788,-4.58807
183,2.837,-4.70605
184,2.845,-4.82994
185,2.902,-4.89877
186,2.905,-4.99944
187,2.964,-5.02763
188,2.967,-5.12856
189,3.024,-5.13236
190,3.027,-5.23559
191,3.086,-5.35156
192,3.086,-5.25
193,3.147,-5.35377
194,3.147,-5.45734
195,3.206,-5.55301
196,3.209,-5.45299
197,3.264,-5.64193
198,3.269,-5.54658
199,3.324,-5.67677
200,3.363,-5.77248
201,3.396,-5.64699
202,3.431,-5.77461
203,3.45,-5.61819
204,3.49,-5.6812
205,3.502,-5.47407
206,3.536,-5.53455
207,3.542,-5.30562
208,3.574,-5.37708
209,3.576,-5.12858
210,3.607,-5.20382
211,3.61,-4.95997
212,3.639,-5.04417
213,3.645,-4.80711
214,3.673,-4.88674
215,3.684,-4.68337
216,3.716,-4.75036
217,3.736,-4.62092
218,3.796,-4.65867
219,3.798,-4.78214
220,3.856,-4.75764
221,3.86,-4.88368
222,3.896,-4.95288
223,3.92,-4.84057
224,3.962,-4.95058
225,3.981,-4.7991
226,4.022,-4.88516
227,4.041,-4.72425
228,4.08,-4.82146
229,4.101,-4.69482
230,4.161,-4.7488
231,4.172,-4.90694
232,4.219,-4.89393
233,4.229,-5.08095
234,4.278,-5.10519
235,4.288,-5.29933
236,4.325,-5.24225
237,4.343,-5.44422
238,4.4,-5.54238
239,4.404,-5.68999
240,4.461,-5.65532
241,4.462,-5.79653
242,4.522,-5.75327
243,4.527,-5.90619
244,4.582,-5.86669
245,4.589,-6.0358
246,4.643,-6.03636
247,4.65,-6.21012
248,4.705,-6.20741
249,4.71,-6.37372
250,4.767,-6.49443
251,4.768,-6.34841
252,4.812,-6.53345
253,4.829,-6.39302
254,4.875,-6.55244
255,4.89,-6.40451
256,4.942,-6.58262
257,4.951,-6.43432
258,5.011,-6.50216
259,5.016,-6.66846
260,5.071,-6.61592
261,5.076,-6.78931
262,5.132,-6.77076
263,5.138,-6.9529
264,5.193,-6.9327
265,5.194,-7.09959
266,5.247,-7.055
267,5.297,-7.43343
268,5.348,-7.50761
269,5.358,-7.72476
270,5.407,-7.70248
271,5.415,-7.92178
272,5.47,-7.94691
273,5.474,-8.14154
274,5.533,-8.12543
275,5.533,-8.30213
276,5.583,-8.36831
277,5.595,-8.20216
278,5.65,-8.42053
279,5.655,-8.24738
280,5.716,-8.33635
281,5.716,-8.50983
282,5.776,-8.42949
283,5.777,-8.61544
284,5.838,-8.72135
285,5.838,-8.53776
286,5.882,-8.75697
287,5.9,-8.56874
288,5.945,-8.71815
289,5.962,-8.50545
290,6.001,-8.65179
291,6.022,-8.42002
292,6.061,-8.57281
293,6.076,-8.43405
294,6.118,-8.52069
295,6.139,-8.23565
296,6.194,-8.36606
297,6.234,-8.27199
298,6.242,-8.49709
299,6.292,-8.56208
300,6.298,-8.78366
301,6.351,-8.74533
302,6.359,-8.9881
303,6.412,-8.98798
304,6.42,-9.22692
305,6.473,-9.20762
306,6.48,-9.44742
307,6.534,-9.4266
308,6.541,-9.66552
309,6.596,-9.64951
310,6.602,-9.88924
311,6.64,-10.0303
312,6.656,-9.85898
313,6.706,-9.95348
314,6.734,-10.3521
315,6.79,-10.4076
316,6.844,-10.653
317,6.848,-10.4339
318,6.904,-10.7085
319,6.909,-10.4855
320,6.968,-10.7687
321,6.969,-10.5341
322,7.019,-10.6807