File: data-release/xrd_measurements/Li3PS4_gamma/F_of_Q.csv
,Q,F,dF
0,0.462852,-0.192282,1e-7
6,0.481362,-0.19752,0.0001
12,0.499871,-0.200077,0.0001
18,0.51838,-0.202114,0.0001
24,0.536888,-0.204323,0.0001
30,0.555395,-0.204673,0.0001
36,0.573902,-0.203866,0.0001
42,0.592408,-0.209422,0.0001
48,0.610913,-0.211117,0.0001
54,0.629418,-0.206863,0.0001
60,0.647922,-0.208049,0.0001
66,0.666426,-0.210053,0.0001
72,0.684928,-0.205008,0.0001
78,0.70343,-0.20491,0.0001
84,0.721932,-0.205305,0.0001
90,0.740432,-0.200453,0.0001
96,0.758932,-0.198841,0.0001
102,0.77743,-0.191164,0.0001
108,0.795928,-0.1855,0.0001
114,0.814425,-0.181068,0.0001
120,0.832921,-0.171129,0.0001
126,0.851416,-0.161737,0.0001
132,0.869911,-0.150038,0.0001
138,0.888404,-0.139396,0.0001
144,0.906896,-0.117623,0.0001
150,0.925388,-0.104366,0.0001
156,0.943878,-0.083598,0.0001
162,0.962367,-0.060626,0.0001
168,0.980856,-0.029555,0.0001
174,0.999343,0.00877,0.0001
180,1.01783,0.044615,0.0001
186,1.03631,0.090316,0.0001
192,1.0548,0.142236,0.0001
198,1.07328,0.201612,0.0001
204,1.09176,0.266081,0.0001
210,1.11024,0.334938,0.0001
216,1.12872,0.408248,0.0001
222,1.1472,0.486311,0.0001
228,1.16568,0.56514,0.0001
234,1.18415,0.639184,0.0001
240,1.20262,0.708401,0.0001
246,1.2211,0.767284,0.0001
252,1.23957,0.816221,0.0001
258,1.25804,0.845174,0.0001
264,1.27651,0.857834,0.0001
270,1.29497,0.854134,0.0001
276,1.31344,0.836433,0.0001
282,1.3319,0.80528,0.0001
288,1.35037,0.773741,0.0001
294,1.36883,0.7288,0.0001
300,1.38729,0.679025,0.0001
306,1.40575,0.630018,0.0001
312,1.4242,0.582097,0.0001
318,1.44266,0.542548,0.0001
324,1.46111,0.49765,0.0001
330,1.47956,0.464374,0.0001
336,1.49802,0.424301,0.0001
342,1.51646,0.397831,0.0001
348,1.53491,0.370152,0.0001
354,1.55336,0.354542,0.0001
360,1.5718,0.33602,0.0001
366,1.59024,0.323101,0.0001
372,1.60868,0.317063,0.0001
378,1.62712,0.312833,0.0001
384,1.64556,0.315982,0.0001
390,1.66399,0.320968,0.0001
396,1.68243,0.33044,0.0001
402,1.70086,0.340765,0.0001
408,1.71929,0.360494,0.0001
414,1.73771,0.380995,0.0001
420,1.75614,0.410942,0.0001
426,1.77456,0.44334,0.0001
432,1.79299,0.47912,0.0001
438,1.81141,0.519741,0.0001
444,1.82982,0.581786,0.0001
450,1.84824,0.636019,0.0001
456,1.86665,0.707226,0.0001
462,1.88506,0.815314,0.0001
468,1.90347,0.906525,0.0001
474,1.92188,0.970164,0.0001
480,1.94029,1.064967,0.0001
486,1.95869,1.195531,0.0001
492,1.97709,1.320192,0.0001
498,1.99549,1.461428,0.0001
504,2.01389,1.589325,0.0001
510,2.03228,1.712764,0.0001
516,2.05067,1.811081,0.0001
522,2.06906,1.884334,0.0001
528,2.08745,1.928612,0.0001
534,2.10584,1.916418,0.0001
540,2.12422,1.871091,0.0001
546,2.1426,1.784908,0.0001
552,2.16098,1.682423,0.0001
558,2.17936,1.567155,0.0001
564,2.19773,1.45086,0.0001
570,2.2161,1.32129,0.0001
576,2.23447,1.210489,0.0001
582,2.25284,1.104806,0.0001
588,2.2712,1.014109,0.0001
594,2.28956,0.948489,0.0001
600,2.30792,0.879805,0.0001
606,2.32628,0.820074,0.0001
612,2.34463,0.768563,0.0001
618,2.36298,0.733507,0.0001
624,2.38133,0.698291,0.0001
630,2.39968,0.668146,0.0001
636,2.41802,0.639481,0.0001
642,2.43636,0.626318,0.0001
648,2.4547,0.607901,0.0001
654,2.47304,0.594678,0.0001
660,2.49137,0.582875,0.0001
666,2.5097,0.576686,0.0001
672,2.52803,0.568237,0.0001
678,2.54635,0.570916,0.0001
684,2.56467,0.564953,0.0001
690,2.58299,0.571547,0.0001
696,2.60131,0.577587,0.0001
702,2.61962,0.581014,0.0001
708,2.63793,0.587232,0.0001
714,2.65624,0.599389,0.0001
720,2.67455,0.601615,0.0001
726,2.69285,0.616906,0.0001
732,2.71115,0.618943,0.0001
738,2.72944,0.631662,0.0001
744,2.74773,0.638615,0.0001
750,2.76602,0.653022,0.0001
756,2.78431,0.656402,0.0001
762,2.80259,0.667753,0.0001
768,2.82088,0.677357,0.0001
774,2.83915,0.696424,0.0001
780,2.85743,0.712292,0.0001
786,2.8757,0.724548,0.0001
792,2.89397,0.73296,0.0001
798,2.91223,0.748598,0.0001
804,2.93049,0.762639,0.0001
810,2.94875,0.778174,0.0001
816,2.96701,0.792901,0.0001
822,2.98526,0.80976,0.0001
828,3.00351,0.826367,0.0001
834,3.02175,0.841814,0.0001
840,3.04,0.853859,0.0001
846,3.05823,0.867958,0.0001
852,3.07647,0.89894,0.0001
858,3.0947,0.93426,0.0001
864,3.11293,0.92874,0.0001
870,3.13116,0.921036,0.0001
876,3.14938,0.924678,0.0001
882,3.1676,0.931039,0.0001
888,3.18581,0.936904,0.0001
894,3.20402,0.939056,0.0001
900,3.22223,0.953199,0.0001
906,3.24043,0.950969,0.0001
912,3.25864,0.954263,0.0001
918,3.27683,0.961795,0.0001
924,3.29503,0.967945,0.0001
930,3.31322,0.976867,0.0001
936,3.3314,0.995668,0.0001
942,3.34959,1.011386,0.0001
948,3.36776,1.029588,0.0001
954,3.38594,1.049591,0.0001
960,3.40411,1.074667,0.0001
966,3.42228,1.094402,0.0001
972,3.44044,1.123657,0.0001
978,3.4586,1.150163,0.0001
984,3.47676,1.173546,0.0001
990,3.49491,1.199373,0.0001
996,3.51306,1.232167,0.0001
1002,3.53121,1.246006,0.0001
1008,3.54935,1.26448,0.0001
1014,3.56749,1.288097,0.0001
1020,3.58562,1.309279,0.0001
1026,3.60375,1.322997,0.0001
1032,3.62188,1.356609,0.0001
1038,3.64,1.379656,0.0001
1044,3.65811,1.37276,0.0001
1050,3.67623,1.358156,0.0001
1056,3.69434,1.365255,0.0001
1062,3.71244,1.3674,0.0001
1068,3.73054,1.364322,0.0001
1074,3.74864,1.361507,0.0001
1080,3.76674,1.366865,0.0001
1086,3.78482,1.360814,0.0001
1092,3.80291,1.35814,0.0001
1098,3.82099,1.353834,0.0001
1104,3.83907,1.349726,0.0001
1110,3.85714,1.341386,0.0001
1116,3.87521,1.344341,0.0001
1122,3.89327,1.342846,0.0001
1128,3.91133,1.344643,0.0001
1134,3.92939,1.336749,0.0001
1140,3.94744,1.336938,0.0001
1146,3.96548,1.333192,0.0001
1152,3.98353,1.337774,0.0001
1158,4.00156,1.336411,0.0001
1164,4.0196,1.332827,0.0001
1170,4.03763,1.326753,0.0001
1176,4.05565,1.324117,0.0001
1182,4.07367,1.329067,0.0001
1188,4.09169,1.315287,0.0001
1194,4.1097,1.312845,0.0001
1200,4.12771,1.307991,0.0001
1206,4.14571,1.295399,0.0001
1212,4.16371,1.278708,0.0001
1218,4.1817,1.263461,0.0001
1224,4.19969,1.248055,0.0001
1230,4.21767,1.228076,0.0001
1236,4.23565,1.220883,0.0001
1242,4.25363,1.195781,0.0001
1248,4.2716,1.171411,0.0001
1254,4.28956,1.154955,0.0001
1260,4.30752,1.13805,0.0001
1266,4.32548,1.109312,0.0001
1272,4.34343,1.089748,0.0001
1278,4.36138,1.067792,0.0001
1284,4.37932,1.050034,0.0001
1290,4.39726,1.036014,0.0001
1296,4.41519,1.010409,0.0001
1302,4.43311,0.994604,0.0001
1308,4.45104,0.969057,0.0001
1314,4.46895,0.960072,0.0001
1320,4.48687,0.938553,0.0001
1326,4.50477,0.931949,0.0001
1332,4.52268,0.922786,0.0001
1338,4.54058,0.912363,0.0001
1344,4.55847,0.899487,0.0001
1350,4.57636,0.892342,0.0001
1356,4.59424,0.876703,0.0001
1362,4.61212,0.871828,0.0001
1368,4.62999,0.874785,0.0001
1374,4.64786,0.859933,0.0001
1380,4.66572,0.855057,0.0001
1386,4.68358,0.855064,0.0001
1392,4.70143,0.847756,0.0001
1398,4.71928,0.847657,0.0001
1404,4.73712,0.850153,0.0001
1410,4.75495,0.841984,0.0001
1416,4.77279,0.855604,0.0001
1422,4.79061,0.852831,0.0001
1428,4.80843,0.849811,0.0001
1434,4.82625,0.83572,0.0001
1440,4.84406,0.8386,0.0001
1446,4.86186,0.839908,0.0001
1452,4.87966,0.836388,0.0001
1458,4.89746,0.843859,0.0001
1464,4.91525,0.835887,0.0001
1470,4.93303,0.825198,0.0001
1476,4.95081,0.819848,0.0001
1482,4.96858,0.826781,0.0001
1488,4.98635,0.824762,0.0001
1494,5.00411,0.816735,0.0001
1500,5.02187,0.825891,0.0001
1506,5.03962,0.812327,0.0001
1512,5.05737,0.80974,0.0001
1518,5.0751,0.803616,0.0001
1524,5.09284,0.815423,0.0001
1530,5.11057,0.807196,0.0001
1536,5.12829,0.801478,0.0001
1542,5.14601,0.787473,0.0001
1548,5.16372,0.796272,0.0001
1554,5.18143,0.798362,0.0001
1560,5.19913,0.795082,0.0001
1566,5.21682,0.780618,0.0001
1572,5.23451,0.7794,0.0001
1578,5.25219,0.780826,0.0001
1584,5.26987,0.77888,0.0001
1590,5.28754,0.77599,0.0001
1596,5.30521,0.789228,0.0001
1602,5.32287,0.777444,0.0001
1608,5.34052,0.786288,0.0001
1614,5.35817,0.805192,0.0001
1620,5.37582,0.791951,0.0001
1626,5.39345,0.799668,0.0001
1632,5.41108,0.789735,0.0001
1638,5.42871,0.803626,0.0001
1644,5.44633,0.798362,0.0001
1650,5.46394,0.818299,0.0001
1656,5.48155,0.817144,0.0001
1662,5.49915,0.832036,0.0001
1668,5.51674,0.837763,0.0001
1674,5.53433,0.848286,0.0001
1680,5.55191,0.849629,0.0001
1686,5.56949,0.866588,0.0001
1692,5.58706,0.867866,0.0001
1698,5.60463,0.905078,0.0001
1704,5.62218,0.891185,0.0001
1710,5.63974,0.900557,0.0001
1716,5.65728,0.910673,0.0001
1722,5.67482,0.917534,0.0001
1728,5.69236,0.947226,0.0001
1734,5.70988,0.954306,0.0001
1740,5.7274,0.94134,0.0001
1746,5.74492,0.954984,0.0001
1752,5.76243,0.974274,0.0001
1758,5.77993,0.974401,0.0001
1764,5.79743,0.991695,0.0001
1770,5.81492,0.991219,0.0001
1776,5.8324,0.997609,0.0001
1782,5.84987,1.009895,0.0001
1788,5.86735,1.039502,0.0001
1794,5.88481,1.019968,0.0001
1800,5.90227,1.039836,0.0001
1806,5.91972,1.043048,0.0001
1812,5.93716,1.040409,0.0001
1818,5.9546,1.061673,0.0001
1824,5.97203,1.060717,0.0001
1830,5.98946,1.075944,0.0001
1836,6.00687,1.079608,0.0001
1842,6.02429,1.083226,0.0001
1848,6.04169,1.090034,0.0001
1854,6.05909,1.09834,0.0001
1860,6.07648,1.108013,0.0001
1866,6.09387,1.110293,0.0001
1872,6.11124,1.106957,0.0001
1878,6.12862,1.119778,0.0001
1884,6.14598,1.116319,0.0001
1890,6.16334,1.118872,0.0001
1896,6.18069,1.126607,0.0001
1902,6.19804,1.140276,0.0001
1908,6.21537,1.132788,0.0001
1914,6.23271,1.135353,0.0001
1920,6.25003,1.151464,0.0001
1926,6.26735,1.127007,0.0001
1932,6.28466,1.135657,0.0001
1938,6.30196,1.139186,0.0001
1944,6.31926,1.135478,0.0001
1950,6.33655,1.13509,0.0001
1956,6.35383,1.132286,0.0001
1962,6.37111,1.133178,0.0001
1968,6.38838,1.126558,0.0001
1974,6.40564,1.125868,0.0001
1980,6.42289,1.119175,0.0001
1986,6.44014,1.117993,0.0001
1992,6.45738,1.098524,0.0001
1998,6.47461,1.117998,0.0001
2004,6.49184,1.119848,0.0001
2010,6.50906,1.110917,0.0001
2016,6.52627,1.104516,0.0001
2022,6.54348,1.08663,0.0001
2028,6.56068,1.084281,0.0001
2034,6.57787,1.097383,0.0001
2040,6.59505,1.082431,0.0001
2046,6.61223,1.07561,0.0001
2052,6.6294,1.071483,0.0001
2058,6.64656,1.062143,0.0001
2064,6.66371,1.050207,0.0001
2070,6.68086,1.055425,0.0001
2076,6.698,1.051111,0.0001
2082,6.71513,1.041812,0.0001
2088,6.73226,1.044014,0.0001
2094,6.74938,1.029919,0.0001
2100,6.76649,1.039252,0.0001
2106,6.78359,1.02563,0.0001
2112,6.80068,1.018768,0.0001
2118,6.81777,1.026226,0.0001
2124,6.83485,1.02806,0.0001
2130,6.85193,1.013379,0.0001
2136,6.86899,1.009979,0.0001
2142,6.88605,1.0051,0.0001
2148,6.9031,1.012674,0.0001
2154,6.92014,1.010678,0.0001
2160,6.93718,1.000048,0.0001
2166,6.95421,0.996847,0.0001
2172,6.97123,1.014678,0.0001
2178,6.98824,1.00952,0.0001
2184,7.00525,1.005742,0.0001
2190,7.02224,1.015272,0.0001
2196,7.03923,1.007018,0.0001
2202,7.05621,1.007979,0.0001
2208,7.07319,1.000191,0.0001
2214,7.09015,1.008824,0.0001
2220,7.10711,1.01071,0.0001
2226,7.12406,1.000359,0.0001
2232,7.14101,1.01318,0.0001
2238,7.15794,0.999149,0.0001
2244,7.17487,0.985779,0.0001
2250,7.19179,1.018358,0.0001
2256,7.2087,1.010584,0.0001
2262,7.2256,1.00173,0.0001
2268,7.2425,1.013505,0.0001
2274,7.25939,1.00932,0.0001
2280,7.27627,1.00962,0.0001
2286,7.29314,1.003903,0.0001
2292,7.31,1.025557,0.0001
2298,7.32686,1.016361,0.0001
2304,7.3437,1.028057,0.0001
2310,7.36054,1.019971,0.0001
2316,7.37738,1.014479,0.0001
2322,7.3942,1.022464,0.0001
2328,7.41101,1.029238,0.0001
2334,7.42782,1.015718,0.0001
2340,7.44462,1.025803,0.0001
2346,7.46141,1.019609,0.0001
2352,7.47819,1.022266,0.0001
2358,7.49497,1.027467,0.0001
2364,7.51174,1.024728,0.0001
2370,7.52849,1.023971,0.0001
2376,7.54524,1.032588,0.0001
2382,7.56198,1.031386,0.0001
2388,7.57872,1.036218,0.0001
2394,7.59544,1.040975,0.0001
2400,7.61216,1.035907,0.0001
2406,7.62887,1.032197,0.0001
2412,7.64557,1.037243,0.0001
2418,7.66226,1.041378,0.0001
2424,7.67894,1.040471,0.0001
2430,7.69562,1.041081,0.0001
2436,7.71228,1.052913,0.0001
2442,7.72894,1.034184,0.0001
2448,7.74559,1.042231,0.0001
2454,7.76223,1.038495,0.0001
2460,7.77886,1.041466,0.0001
2466,7.79549,1.038571,0.0001
2472,7.8121,1.040456,0.0001
2478,7.82871,1.052553,0.0001
2484,7.84531,1.039753,0.0001
2490,7.8619,1.039092,0.0001
2496,7.87848,1.033721,0.0001
2502,7.89505,1.038243,0.0001
2508,7.91161,1.031381,0.0001
2514,7.92817,1.018849,0.0001
2520,7.94472,1.019483,0.0001
2526,7.96125,1.029678,0.0001
2532,7.97778,1.025811,0.0001
2538,7.9943,1.009729,0.0001
2544,8.01081,1.028415,0.0001
2550,8.02732,1.019194,0.0001
2556,8.04381,1.022389,0.0001
2562,8.06029,1.008399,0.0001
2568,8.07677,1.005904,0.0001
2574,8.09324,1.004546,0.0001
2580,8.1097,1.010538,0.0001
2586,8.12614,0.997532,0.0001
2592,8.14258,1.002299,0.0001
2598,8.15902,0.986199,0.0001
2604,8.17544,0.976888,0.0001
2610,8.19185,0.992251,0.0001
2616,8.20826,0.988448,0.0001
2622,8.22465,0.976883,0.0001
2628,8.24104,0.963071,0.0001
2634,8.25742,0.977592,0.0001
2640,8.27379,0.955606,0.0001
2646,8.29015,0.944667,0.0001
2652,8.3065,0.957946,0.0001
2658,8.32284,0.945662,0.0001
2664,8.33917,0.952863,0.0001
2670,8.35549,0.9534,0.0001
2676,8.37181,0.928292,0.0001
2682,8.38811,0.930494,0.0001
2688,8.40441,0.925197,0.0001
2694,8.42069,0.93296,0.0001
2700,8.43697,0.919106,0.0001
2706,8.45324,0.912385,0.0001
2712,8.4695,0.917606,0.0001
2718,8.48574,0.909596,0.0001
2724,8.50198,0.911604,0.0001
2730,8.51821,0.896733,0.0001
2736,8.53444,0.895567,0.0001
2742,8.55065,0.897488,0.0001
2748,8.56685,0.884932,0.0001
2754,8.58304,0.888685,0.0001
2760,8.59923,0.889822,0.0001
2766,8.6154,0.891018,0.0001
2772,8.63157,0.893499,0.0001
2778,8.64772,0.876079,0.0001
2784,8.66387,0.867618,0.0001
2790,8.68,0.876798,0.0001
2796,8.69613,0.868289,0.0001
2802,8.71225,0.885579,0.0001
2808,8.72836,0.879054,0.0001
2814,8.74445,0.861347,0.0001
2820,8.76054,0.869087,0.0001
2826,8.77662,0.880409,0.0001
2832,8.79269,0.869751,0.0001
2838,8.80875,0.871505,0.0001
2844,8.8248,0.87926,0.0001
2850,8.84084,0.860872,0.0001
2856,8.85687,0.876186,0.0001
2862,8.87289,0.871616,0.0001
2868,8.8889,0.874991,0.0001
2874,8.9049,0.888009,0.0001
2880,8.9209,0.882854,0.0001
2886,8.93688,0.889909,0.0001
2892,8.95285,0.901826,0.0001
2898,8.96881,0.887677,0.0001
2904,8.98477,0.899424,0.0001
2910,9.00071,0.914653,0.0001
2916,9.01664,0.899772,0.0001
2922,9.03256,0.900339,0.0001
2928,9.04848,0.897171,0.0001
2934,9.06438,0.910494,0.0001
2940,9.08027,0.907087,0.0001
2946,9.09616,0.92209,0.0001
2952,9.11203,0.926104,0.0001
2958,9.12789,0.91819,0.0001
2964,9.14375,0.912256,0.0001
2970,9.15959,0.932434,0.0001
2976,9.17542,0.934487,0.0001
2982,9.19124,0.948018,0.0001
2988,9.20706,0.949015,0.0001
2994,9.22286,0.958392,0.0001
3000,9.23865,0.969314,0.0001
3006,9.25444,0.982282,0.0001
3012,9.27021,0.968621,0.0001
3018,9.28597,0.987225,0.0001
3024,9.30172,1.003712,0.0001
3030,9.31746,0.983014,0.0001
3036,9.3332,1.009199,0.0001
3042,9.34892,1.012886,0.0001
3048,9.36463,1.018516,0.0001
3054,9.38033,1.004747,0.0001
3060,9.39602,1.035771,0.0001
3066,9.4117,1.037853,0.0001
3072,9.42737,1.037137,0.0001
3078,9.44303,1.059643,0.0001
3084,9.45868,1.038145,0.0001
3090,9.47432,1.046155,0.0001
3096,9.48995,1.054375,0.0001
3102,9.50557,1.072634,0.0001
3108,9.52117,1.059821,0.0001
3114,9.53677,1.084575,0.0001
3120,9.55236,1.090881,0.0001
3126,9.56793,1.094093,0.0001
3132,9.5835,1.084283,0.0001
3138,9.59905,1.088636,0.0001
3144,9.6146,1.110318,0.0001
3150,9.63013,1.105896,0.0001
3156,9.64566,1.080065,0.0001
3162,9.66117,1.098768,0.0001
3168,9.67667,1.119885,0.0001
3174,9.69216,1.090374,0.0001
3180,9.70765,1.126163,0.0001
3186,9.72312,1.114837,0.0001
3192,9.73858,1.122096,0.0001
3198,9.75403,1.133797,0.0001
3204,9.76946,1.114078,0.0001
3210,9.78489,1.108364,0.0001
3216,9.80031,1.125414,0.0001
3222,9.81572,1.124853,0.0001
3228,9.83111,1.131767,0.0001
3234,9.8465,1.13652,0.0001
3240,9.86187,1.149108,0.0001
3246,9.87723,1.131659,0.0001
3252,9.89259,1.149102,0.0001
3258,9.90793,1.127085,0.0001
3264,9.92326,1.153772,0.0001
3270,9.93858,1.131227,0.0001
3276,9.95389,1.159093,0.0001
3282,9.96919,1.136076,0.0001
3288,9.98447,1.127682,0.0001
3294,9.99975,1.138308,0.0001
3300,10.015,1.116087,0.0001
3306,10.0303,1.123813,0.0001
3312,10.0455,1.109637,0.0001
3318,10.0607,1.12693,0.0001
3324,10.076,1.108753,0.0001
3330,10.0912,1.135524,0.0001
3336,10.1064,1.115462,0.0001
3342,10.1216,1.117204,0.0001
3348,10.1367,1.107568,0.0001
3354,10.1519,1.105964,0.0001
3360,10.1671,1.097279,0.0001
3366,10.1822,1.085161,0.0001
3372,10.1973,1.084455,0.0001
3378,10.2125,1.075227,0.0001
3384,10.2276,1.075352,0.0001
3390,10.2427,1.085252,0.0001
3396,10.2578,1.095903,0.0001
3402,10.2728,1.088015,0.0001
3408,10.2879,1.072624,0.0001
3414,10.3029,1.048937,0.0001
3420,10.318,1.062157,0.0001
3426,10.333,1.051268,0.0001
3432,10.348,1.05237,0.0001
3438,10.363,1.058221,0.0001
3444,10.378,1.048455,0.0001
3450,10.393,1.048606,0.0001
3456,10.408,1.044711,0.0001
3462,10.423,1.021807,0.0001
3468,10.4379,1.020197,0.0001
3474,10.4529,1.006059,0.0001
3480,10.4678,1.024773,0.0001
3486,10.4827,1.000755,0.0001
3492,10.4976,0.998743,0.0001
3498,10.5125,0.983995,0.0001
3504,10.5274,0.990215,0.0001
3510,10.5423,1.024263,0.0001
3516,10.5571,0.990517,0.0001
3522,10.572,0.990853,0.0001
3528,10.5868,0.997029,0.0001
3534,10.6016,0.988162,0.0001
3540,10.6164,0.975267,0.0001
3546,10.6312,0.975598,0.0001
3552,10.646,0.969237,0.0001
3558,10.6608,0.946756,0.0001
3564,10.6756,0.984971,0.0001
3570,10.6903,0.988625,0.0001
3576,10.7051,0.97389,0.0001
3582,10.7198,0.936866,0.0001
3588,10.7345,0.945496,0.0001
3594,10.7492,0.949402,0.0001
3600,10.7639,0.961478,0.0001
3606,10.7786,0.940319,0.0001
3612,10.7933,0.974374,0.0001
3618,10.8079,0.966534,0.0001
3624,10.8226,0.969378,0.0001
3630,10.8372,0.935358,0.0001
3636,10.8519,0.939367,0.0001
3642,10.8665,0.937455,0.0001
3648,10.8811,0.947258,0.0001
3654,10.8957,0.939899,0.0001
3660,10.9102,0.940425,0.0001
3666,10.9248,0.941249,0.0001
3672,10.9393,0.943462,0.0001
3678,10.9539,0.933948,0.0001
3684,10.9684,0.952289,0.0001
3690,10.9829,0.921162,0.0001
3696,10.9974,0.940441,0.0001
3702,11.0119,0.917339,0.0001
3708,11.0264,0.931786,0.0001
3714,11.0409,0.945181,0.0001
3720,11.0553,0.935388,0.0001
3726,11.0698,0.920222,0.0001
3732,11.0842,0.936886,0.0001
3738,11.0986,0.937574,0.0001
3744,11.113,0.926436,0.0001
3750,11.1274,0.915592,0.0001
3756,11.1418,0.931755,0.0001
3762,11.1562,0.909259,0.0001
3768,11.1706,0.920762,0.0001
3774,11.1849,0.925875,0.0001
3780,11.1992,0.948143,0.0001
3786,11.2136,0.931641,0.0001
3792,11.2279,0.940634,0.0001
3798,11.2422,0.941408,0.0001
3804,11.2565,0.945499,0.0001
3810,11.2707,0.915444,0.0001
3816,11.285,0.943178,0.0001
3822,11.2992,0.943128,0.0001
3828,11.3135,0.939828,0.0001
3834,11.3277,0.935547,0.0001
3840,11.3419,0.944311,0.0001
3846,11.3561,0.949418,0.0001
3852,11.3703,0.992896,0.0001
3858,11.3845,0.978167,0.0001
3864,11.3986,0.969938,0.0001
3870,11.4128,0.944037,0.0001
3876,11.4269,0.948381,0.0001
3882,11.441,0.947712,0.0001
3888,11.4551,0.974313,0.0001
3894,11.4692,0.960302,0.0001
3900,11.4833,0.967588,0.0001
3906,11.4974,0.957255,0.0001
3912,11.5115,0.963636,0.0001
3918,11.5255,0.965708,0.0001
3924,11.5396,0.96518,0.0001
3930,11.5536,0.935579,0.0001
3936,11.5676,0.948939,0.0001
3942,11.5816,1.011687,0.0001
3948,11.5956,0.944125,0.0001
3954,11.6095,0.969937,0.0001
3960,11.6235,0.990921,0.0001
3966,11.6374,0.982883,0.0001
3972,11.6514,0.942813,0.0001
3978,11.6653,0.953206,0.0001
3984,11.6792,0.958353,0.0001
3990,11.6931,0.954096,0.0001
3996,11.707,0.989917,0.0001
4002,11.7209,0.980633,0.0001
4008,11.7347,0.973384,0.0001
4014,11.7486,0.99138,0.0001
4020,11.7624,0.961317,0.0001
4026,11.7762,0.988896,0.0001
4032,11.79,0.973365,0.0001
4038,11.8038,0.952535,0.0001
4044,11.8176,1.005053,0.0001
4050,11.8314,0.997716,0.0001
4056,11.8451,1.012589,0.0001
4062,11.8588,0.945666,0.0001
4068,11.8726,0.995964,0.0001
4074,11.8863,0.969594,0.0001
4080,11.9,1.000803,0.0001
4086,11.9137,0.97,0.0001
4092,11.9274,0.979757,0.0001
4098,11.941,1.004152,0.0001
4104,11.9547,0.969039,0.0001
4110,11.9683,0.983481,0.0001
4116,11.9819,0.965953,0.0001
4122,11.9955,0.974094,0.0001
4128,12.0091,0.971845,0.0001
4134,12.0227,0.970975,0.0001
4140,12.0363,1.001296,0.0001
4146,12.0498,0.993752,0.0001
4152,12.0634,0.969989,0.0001
4158,12.0769,1.0115,0.0001
4164,12.0904,1.018681,0.0001
4170,12.1039,0.967948,0.0001
4176,12.1174,0.995707,0.0001
4182,12.1309,0.997028,0.0001
4188,12.1444,1.038955,0.0001
4194,12.1578,1.00395,0.0001
4200,12.1713,0.99317,0.0001
4206,12.1847,0.969005,0.0001
4212,12.1981,0.986145,0.0001
4218,12.2115,0.994651,0.0001
4224,12.2249,1.003617,0.0001
4230,12.2383,0.988138,0.0001
4236,12.2516,0.985103,0.0001
4242,12.265,1.029668,0.0001
4248,12.2783,0.982793,0.0001
4254,12.2916,0.985239,0.0001
4260,12.3049,0.991916,0.0001
4266,12.3182,1.022776,0.0001
4272,12.3315,0.979343,0.0001
4278,12.3447,0.974887,0.0001
4284,12.358,0.988636,0.0001
4290,12.3712,1.001543,0.0001
4296,12.3844,0.99988,0.0001
4302,12.3977,0.957688,0.0001
4308,12.4109,1.016025,0.0001
4314,12.424,0.971193,0.0001
4320,12.4372,0.980264,0.0001
4326,12.4504,0.976407,0.0001
4332,12.4635,0.976609,0.0001
4338,12.4766,1.002446,0.0001
4344,12.4897,0.973078,0.0001
4350,12.5028,1.001652,0.0001
4356,12.5159,1.031467,0.0001
4362,12.529,1.001801,0.0001
4368,12.5421,0.989883,0.0001
4374,12.5551,1.023761,0.0001
4380,12.5681,1.01902,0.0001
4386,12.5811,1.01959,0.0001
4392,12.5942,0.987929,0.0001
4398,12.6071,1.002823,0.0001
4404,12.6201,0.991961,0.0001
4410,12.6331,1.032294,0.0001
4416,12.646,1.023143,0.0001
4422,12.659,0.989259,0.0001
4428,12.6719,1.057341,0.0001
4434,12.6848,0.992924,0.0001
4440,12.6977,1.008009,0.0001
4446,12.7106,1.013328,0.0001
4452,12.7234,1.024595,0.0001
4458,12.7363,1.048815,0.0001
4464,12.7491,1.019864,0.0001
4470,12.7619,0.999023,0.0001
4476,12.7747,1.040744,0.0001
4482,12.7875,1.000745,0.0001
4488,12.8003,1.057325,0.0001
4494,12.8131,1.015248,0.0001
4500,12.8258,1.028215,0.0001
4506,12.8386,1.04669,0.0001
4512,12.8513,1.033409,0.0001
4518,12.864,0.997792,0.0001
4524,12.8767,1.012072,0.0001
4530,12.8894,1.023706,0.0001
4536,12.9021,1.040936,0.0001
4542,12.9147,1.046013,0.0001
4548,12.9274,1.040388,0.0001
4554,12.94,1.056343,0.0001
4560,12.9526,1.036472,0.0001
4566,12.9652,1.035653,0.0001
4572,12.9778,1.018596,0.0001
4578,12.9903,1.043114,0.0001
4584,13.0029,1.036698,0.0001
4590,13.0154,1.024867,0.0001
4596,13.028,1.04359,0.0001
4602,13.0405,1.06457,0.0001
4608,13.053,1.034019,0.0001
4614,13.0655,1.028588,0.0001
4620,13.0779,1.03001,0.0001
4626,13.0904,1.039366,0.0001
4632,13.1028,1.075845,0.0001
4638,13.1152,1.063533,0.0001
4644,13.1277,1.047439,0.0001
4650,13.14,1.062632,0.0001
4656,13.1524,1.056641,0.0001
4662,13.1648,1.054834,0.0001
4668,13.1772,1.071568,0.0001
4674,13.1895,1.056973,0.0001
4680,13.2018,1.054786,0.0001
4686,13.2141,1.024689,0.0001
4692,13.2264,1.088537,0.0001
4698,13.2387,1.095756,0.0001
4704,13.251,1.114384,0.0001
4710,13.2632,1.089604,0.0001
4716,13.2755,1.059882,0.0001
4722,13.2877,1.056718,0.0001
4728,13.2999,1.11804,0.0001
4734,13.3121,1.043653,0.0001
4740,13.3243,1.053902,0.0001
4746,13.3364,1.068369,0.0001
4752,13.3486,1.085597,0.0001
4758,13.3607,1.091851,0.0001
4764,13.3728,1.051898,0.0001
4770,13.3849,1.095058,0.0001
4776,13.397,1.073068,0.0001
4782,13.4091,1.057732,0.0001
4788,13.4212,1.063308,0.0001
4794,13.4332,1.054318,0.0001
4800,13.4453,1.084093,0.0001
4806,13.4573,1.080573,0.0001
4812,13.4693,1.070468,0.0001
4818,13.4813,1.061236,0.0001
4824,13.4932,1.093431,0.0001
4830,13.5052,1.054696,0.0001
4836,13.5171,1.060721,0.0001
4842,13.5291,1.113499,0.0001
4848,13.541,1.112936,0.0001
4854,13.5529,1.025959,0.0001
4860,13.5648,1.030707,0.0001
4866,13.5766,1.062836,0.0001
4872,13.5885,1.041272,0.0001
4878,13.6003,1.015531,0.0001
4884,13.6122,1.011427,0.0001
4890,13.624,1.032905,0.0001
4896,13.6358,1.057855,0.0001
4902,13.6475,1.063255,0.0001
4908,13.6593,1.07503,0.0001
4914,13.6711,1.06204,0.0001
4920,13.6828,1.007136,0.0001
4926,13.6945,1.02592,0.0001
4932,13.7062,1.006174,0.0001
4938,13.7179,1.046181,0.0001
4944,13.7296,1.028899,0.0001
4950,13.7412,1.006298,0.0001
4956,13.7529,0.987467,0.0001
4962,13.7645,1.026769,0.0001
4968,13.7761,1.002032,0.0001
4974,13.7877,1.000301,0.0001
4980,13.7993,0.994818,0.0001
4986,13.8109,1.017909,0.0001
4992,13.8224,0.984079,0.0001
4998,13.834,0.981286,0.0001
5004,13.8455,0.977975,0.0001
5010,13.857,0.991971,0.0001
5016,13.8685,0.984122,0.0001
5022,13.88,1.010051,0.0001
5028,13.8915,0.959138,0.0001
5034,13.9029,0.997934,0.0001
5040,13.9143,0.993046,0.0001
5046,13.9258,0.950362,0.0001
5052,13.9372,0.977652,0.0001
5058,13.9485,0.973219,0.0001
5064,13.9599,0.980908,0.0001
5070,13.9713,0.985724,0.0001
5076,13.9826,0.969409,0.0001
5082,13.9939,0.986392,0.0001
5088,14.0052,0.97426,0.0001
5094,14.0165,0.945662,0.0001
5100,14.0278,0.985196,0.0001
5106,14.0391,1.000974,0.0001
5112,14.0503,0.953115,0.0001
5118,14.0616,0.948552,0.0001
5124,14.0728,0.964356,0.0001
5130,14.084,1.018299,0.0001
5136,14.0952,0.966956,0.0001
5142,14.1063,0.991046,0.0001
5148,14.1175,1.00117,0.0001
5154,14.1286,0.974473,0.0001
5160,14.1398,0.993451,0.0001
5166,14.1509,0.988096,0.0001
5172,14.162,0.915766,0.0001
5178,14.1731,0.949989,0.0001
5184,14.1841,0.968934,0.0001
5190,14.1952,0.991908,0.0001
5196,14.2062,0.94073,0.0001
5202,14.2172,0.952028,0.0001
5208,14.2282,0.923026,0.0001
5214,14.2392,0.943098,0.0001
5220,14.2502,0.948856,0.0001
5226,14.2611,0.946354,0.0001
5232,14.2721,0.960665,0.0001
5238,14.283,0.965166,0.0001
5244,14.2939,0.9229,0.0001
5250,14.3048,0.963229,0.0001
5256,14.3157,0.876868,0.0001
5262,14.3265,0.935542,0.0001
5268,14.3374,0.921738,0.0001
5274,14.3482,0.911196,0.0001
5280,14.359,0.937079,0.0001
5286,14.3698,0.896983,0.0001
5292,14.3806,0.911365,0.0001
5298,14.3913,0.899581,0.0001
5304,14.4021,0.914304,0.0001
5310,14.4128,0.850635,0.0001
5316,14.4235,0.894548,0.0001
5322,14.4343,0.862567,0.0001
5328,14.4449,0.907139,0.0001
5334,14.4556,0.940264,0.0001
5340,14.4663,0.90633,0.0001
5346,14.4769,0.919725,0.0001
5352,14.4875,0.927308,0.0001
5358,14.4981,0.943314,0.0001
5364,14.5087,0.940452,0.0001
5370,14.5193,0.970441,0.0001
5376,14.5299,0.97686,0.0001
5382,14.5404,0.947485,0.0001
5388,14.5509,0.925464,0.0001
5394,14.5614,0.950092,0.0001
5400,14.5719,0.915054,0.0001
5406,14.5824,0.908701,0.0001
5412,14.5929,0.978864,0.0001
5418,14.6033,0.930081,0.0001
5424,14.6138,0.944533,0.0001
5430,14.6242,0.940753,0.0001
5436,14.6346,0.925058,0.0001
5442,14.645,0.969731,0.0001
5448,14.6553,0.942288,0.0001
5454,14.6657,0.877239,0.0001
5460,14.676,0.950832,0.0001
5466,14.6863,0.99852,0.0001
5472,14.6966,0.944032,0.0001
5478,14.7069,0.950732,0.0001
5484,14.7172,0.955383,0.0001
5490,14.7274,0.905679,0.0001
5496,14.7377,0.985747,0.0001
5502,14.7479,0.945958,0.0001
5508,14.7581,0.916325,0.0001
5514,14.7683,0.933818,0.0001
5520,14.7785,0.927879,0.0001
5526,14.7886,0.930235,0.0001
5532,14.7988,0.937212,0.0001
5538,14.8089,0.966185,0.0001
5544,14.819,0.917808,0.0001
5550,14.8291,0.928095,0.0001
5556,14.8392,0.955267,0.0001
5562,14.8492,0.927471,0.0001
5568,14.8593,0.943496,0.0001
5574,14.8693,0.946141,0.0001
5580,14.8793,0.931782,0.0001
5586,14.8893,0.969046,0.0001
5592,14.8993,0.978759,0.0001
5598,14.9093,1.000638,0.0001
5604,14.9192,0.954753,0.0001
5610,14.9291,0.930281,0.0001
5616,14.9391,0.954298,0.0001
5622,14.9489,0.957001,0.0001
5628,14.9588,0.990828,0.0001
5634,14.9687,0.98857,0.0001
5640,14.9785,0.928387,0.0001
5646,14.9884,0.978298,0.0001
5652,14.9982,1.022187,0.0001
5658,15.008,0.94561,0.0001
5664,15.0178,0.957002,0.0001
5670,15.0275,0.992106,0.0001
5676,15.0373,1.050015,0.0001
5682,15.047,1.00085,0.0001
5688,15.0567,0.979214,0.0001
5694,15.0664,0.997673,0.0001
5700,15.0761,1.017558,0.0001
5706,15.0858,0.964286,0.0001
5712,15.0954,1.027339,0.0001
5718,15.1051,0.995192,0.0001
5724,15.1147,0.984027,0.0001
5730,15.1243,1.042944,0.0001
5736,15.1339,1.043311,0.0001
5742,15.1434,0.985223,0.0001
5748,15.153,0.988117,0.0001
5754,15.1625,1.089841,0.0001
5760,15.172,1.04737,0.0001
5766,15.1815,1.025999,0.0001
5772,15.191,1.017798,0.0001
5778,15.2005,0.965492,0.0001
5784,15.2099,0.981043,0.0001
5790,15.2194,0.988027,0.0001
5796,15.2288,0.995647,0.0001
5802,15.2382,0.980332,0.0001
5808,15.2476,1.050898,0.0001
5814,15.2569,1.021273,0.0001
5820,15.2663,0.953443,0.0001
5826,15.2756,1.01173,0.0001
5832,15.2849,0.996049,0.0001
5838,15.2942,0.978373,0.0001
5844,15.3035,0.992755,0.0001
5850,15.3128,1.055593,0.0001
5856,15.322,0.982461,0.0001
5862,15.3313,1.040786,0.0001
5868,15.3405,1.006372,0.0001
5874,15.3497,1.029043,0.0001
5880,15.3589,0.986452,0.0001
5886,15.368,1.029357,0.0001
5892,15.3772,1.004964,0.0001
5898,15.3863,1.041045,0.0001
5904,15.3954,0.921342,0.0001
5910,15.4045,0.97024,0.0001
5916,15.4136,1.01447,0.0001
5922,15.4227,0.963247,0.0001
5928,15.4317,1.02591,0.0001
5934,15.4407,1.023252,0.0001
5940,15.4498,1.020408,0.0001
5946,15.4588,1.015353,0.0001
5952,15.4677,0.97375,0.0001
5958,15.4767,1.018067,0.0001
5964,15.4856,0.978819,0.0001
5970,15.4946,1.074033,0.0001
5976,15.5035,1.104261,0.0001
5982,15.5124,1.070782,0.0001
5988,15.5213,1.066236,0.0001
5994,15.5301,1.085144,0.0001
6000,15.539,1.102098,0.0001
6006,15.5478,1.058537,0.0001
6012,15.5566,1.089413,0.0001
6018,15.5654,1.122285,0.0001
6024,15.5742,1.08718,0.0001
6030,15.5829,1.099129,0.0001
6036,15.5917,1.087727,0.0001
6042,15.6004,1.087871,0.0001
6048,15.6091,1.135332,0.0001
6054,15.6178,1.044155,0.0001
6060,15.6265,1.049635,0.0001
6066,15.6351,1.052927,0.0001
6072,15.6438,1.041575,0.0001
6078,15.6524,1.065409,0.0001
6084,15.661,1.0729,0.0001
6090,15.6696,1.057728,0.0001
6096,15.6781,1.06915,0.0001
6102,15.6867,1.031946,0.0001
6108,15.6952,1.034569,0.0001
6114,15.7037,1.00256,0.0001
6120,15.7122,0.990198,0.0001
6126,15.7207,1.0098,0.0001
6132,15.7292,0.969051,0.0001
6138,15.7376,1.022542,0.0001
6144,15.7461,1.031559,0.0001
6150,15.7545,1.059388,0.0001
6156,15.7629,1.122817,0.0001
6162,15.7713,1.031619,0.0001
6168,15.7796,1.03766,0.0001
6174,15.788,1.045455,0.0001
6180,15.7963,1.036799,0.0001
6186,15.8046,1.00724,0.0001
6192,15.8129,0.990236,0.0001
6198,15.8212,1.089672,0.0001
6204,15.8294,1.104675,0.0001
6210,15.8377,1.043217,0.0001
6216,15.8459,1.050613,0.0001
6222,15.8541,1.13036,0.0001
6228,15.8623,1.069269,0.0001
6234,15.8705,1.116319,0.0001
6240,15.8786,1.030084,0.0001
6246,15.8868,1.075767,0.0001
6252,15.8949,1.052468,0.0001
6258,15.903,1.040464,0.0001
6264,15.9111,1.074486,0.0001
6270,15.9191,1.042834,0.0001
6276,15.9272,1.121796,0.0001
6282,15.9352,1.065494,0.0001
6288,15.9432,1.063763,0.0001
6294,15.9512,1.047015,0.0001
6300,15.9592,1.040131,0.0001
6306,15.9672,1.03703,0.0001
6312,15.9751,1.008554,0.0001
6318,15.9831,0.984578,0.0001
6324,15.991,1.067165,0.0001
6330,15.9989,1.057346,0.0001
6336,16.0067,1.007714,0.0001
6342,16.0146,0.997346,0.0001
6348,16.0224,1.064217,0.0001
6354,16.0303,0.983976,0.0001
6360,16.0381,1.08892,0.0001
6366,16.0459,1.033018,0.0001
6372,16.0536,1.030904,0.0001
6378,16.0614,1.129172,0.0001
6384,16.0691,1.008266,0.0001
6390,16.0768,0.997101,0.0001
6396,16.0845,0.994953,0.0001
6402,16.0922,1.02283,0.0001
6408,16.0999,1.024513,0.0001
6414,16.1075,1.071018,0.0001
6420,16.1151,1.087706,0.0001
6426,16.1228,1.232995,0.0001
6432,16.1303,1.080078,0.0001
6438,16.1379,1.047727,0.0001
6444,16.1455,1.04109,0.0001
6450,16.153,0.968263,0.0001
6456,16.1605,1.054224,0.0001
6462,16.168,1.00905,0.0001
6468,16.1755,1.042161,0.0001
6474,16.183,1.105571,0.0001
6480,16.1905,1.070488,0.0001
6486,16.1979,1.085144,0.0001
6492,16.2053,1.001819,0.0001
6498,16.2127,1.0115,0.0001
6504,16.2201,1.047544,0.0001
6510,16.2274,1.071079,0.0001
6516,16.2348,1.032001,0.0001
6522,16.2421,1.035447,0.0001
6528,16.2494,1.021413,0.0001
6534,16.2567,1.050428,0.0001
6540,16.264,1.055802,0.0001
6546,16.2712,1.025607,0.0001
6552,16.2785,1.014195,0.0001
6558,16.2857,1.014254,0.0001
6564,16.2929,1.059609,0.0001
6570,16.3001,0.979432,0.0001
6576,16.3073,1.088579,0.0001
6582,16.3144,0.960873,0.0001
6588,16.3215,1.026508,0.0001
6594,16.3286,1.059285,0.0001
6600,16.3357,0.966801,0.0001
6606,16.3428,0.960823,0.0001
6612,16.3499,1.014573,0.0001
6618,16.3569,1.015172,0.0001
6624,16.3639,1.012371,0.0001
6630,16.3709,0.940929,0.0001
6636,16.3779,0.995188,0.0001
6642,16.3849,0.939832,0.0001
6648,16.3919,0.952675,0.0001
6654,16.3988,0.948041,0.0001
6660,16.4057,0.974116,0.0001
6666,16.4126,0.991067,0.0001
6672,16.4195,0.907325,0.0001
6678,16.4263,1.000402,0.0001
6684,16.4332,0.937721,0.0001
6690,16.44,1.005682,0.0001
6696,16.4468,0.990651,0.0001
6702,16.4536,1.052832,0.0001
6708,16.4604,1.007218,0.0001
6714,16.4671,0.952944,0.0001
6720,16.4739,0.986982,0.0001
6726,16.4806,1.046265,0.0001
6732,16.4873,0.946372,0.0001
6738,16.494,0.993621,0.0001
6744,16.5006,0.972254,0.0001
6750,16.5073,0.980408,0.0001
6756,16.5139,0.919538,0.0001
6762,16.5205,0.94395,0.0001
6768,16.5271,0.939242,0.0001
6774,16.5337,1.001223,0.0001
6780,16.5402,0.967541,0.0001
6786,16.5468,0.975948,0.0001
6792,16.5533,0.952316,0.0001
6798,16.5598,0.963918,0.0001
6804,16.5663,0.970712,0.0001
6810,16.5727,0.946709,0.0001
6816,16.5792,0.938738,0.0001
6822,16.5856,0.979514,0.0001
6828,16.592,0.954719,0.0001
6834,16.5984,0.919928,0.0001
6840,16.6048,0.954579,0.0001
6846,16.6111,0.996581,0.0001
6852,16.6175,0.960871,0.0001
6858,16.6238,1.021693,0.0001
6864,16.6301,0.987012,0.0001
6870,16.6364,0.92106,0.0001
6876,16.6426,1.012831,0.0001
6882,16.6489,0.954671,0.0001
6888,16.6551,0.950997,0.0001
6894,16.6613,0.898542,0.0001
6900,16.6675,1.053871,0.0001
6906,16.6737,0.966251,0.0001
6912,16.6798,0.970048,0.0001
6918,16.6859,1.02647,0.0001
6924,16.6921,0.992566,0.0001
6930,16.6982,1.056504,0.0001
6936,16.7042,0.987275,0.0001
6942,16.7103,0.974752,0.0001
6948,16.7163,0.984577,0.0001
6954,16.7224,0.940701,0.0001
6960,16.7284,1.018873,0.0001
6966,16.7344,1.074207,0.0001
6972,16.7403,1.054193,0.0001
6978,16.7463,1.039795,0.0001
6984,16.7522,1.076292,0.0001
6990,16.7581,0.968958,0.0001
6996,16.764,0.931669,0.0001
7002,16.7699,1.063475,0.0001
7008,16.7758,0.979485,0.0001
7014,16.7816,1.02244,0.0001
7020,16.7874,0.943866,0.0001
7026,16.7932,1.014792,0.0001
7032,16.799,1.00589,0.0001
7038,16.8048,0.945068,0.0001
7044,16.8105,1.041757,0.0001
7050,16.8163,0.971206,0.0001
7056,16.822,0.952901,0.0001
7062,16.8277,0.995854,0.0001
7068,16.8334,0.902812,0.0001
7074,16.839,0.915556,0.0001
7080,16.8447,0.978431,0.0001
7086,16.8503,0.971064,0.0001
7092,16.8559,0.951333,0.0001
7098,16.8615,0.987931,0.0001
7104,16.867,0.991148,0.0001
7110,16.8726,0.965832,0.0001
7116,16.8781,0.964618,0.0001
7122,16.8836,0.968469,0.0001
7128,16.8891,1.003681,0.0001
7134,16.8946,0.984267,0.0001
7140,16.9,1.031647,0.0001
7146,16.9055,1.008985,0.0001
7152,16.9109,1.020997,0.0001
7158,16.9163,0.995649,0.0001
7164,16.9217,0.970155,0.0001
7170,16.927,0.91724,0.0001
7176,16.9324,0.983474,0.0001
7182,16.9377,0.946722,0.0001
7188,16.943,0.960467,0.0001
7194,16.9483,1.001885,0.0001
7200,16.9535,0.999596,0.0001
7206,16.9588,0.99938,0.0001
7212,16.964,1.025465,0.0001
7218,16.9692,0.998838,0.0001
7224,16.9744,0.968304,0.0001
7230,16.9796,1.038337,0.0001
7236,16.9848,1.026893,0.0001
7242,16.9899,1.026349,0.0001
7248,16.995,1.030891,0.0001
7254,17.0001,1.025637,0.0001
7260,17.0052,0.90166,0.0001
7266,17.0103,0.958179,0.0001
7272,17.0153,0.975441,0.0001
7278,17.0203,1.010803,0.0001
7284,17.0253,1.030633,0.0001
7290,17.0303,0.95503,0.0001
7296,17.0353,0.936239,0.0001
7302,17.0403,1.007293,0.0001
7308,17.0452,0.938834,0.0001
7314,17.0501,0.973519,0.0001
7320,17.055,1.000159,0.0001
7326,17.0599,0.95916,0.0001
7332,17.0647,0.958962,0.0001
7338,17.0696,0.908554,0.0001
7344,17.0744,0.973412,0.0001
7350,17.0792,0.988527,0.0001
7356,17.084,1.034846,0.0001
7362,17.0887,0.981149,0.0001
7368,17.0935,0.98973,0.0001
7374,17.0982,0.939226,0.0001
7380,17.1029,0.981927,0.0001
7386,17.1076,0.92233,0.0001
7392,17.1123,0.979645,0.0001
7398,17.1169,0.972202,0.0001
7404,17.1216,0.956922,0.0001
7410,17.1262,0.925624,0.0001
7416,17.1308,0.996816,0.0001
7422,17.1354,0.930066,0.0001
7428,17.1399,0.966183,0.0001
7434,17.1444,0.973203,0.0001
7440,17.149,0.965105,0.0001
7446,17.1535,0.929955,0.0001
7452,17.158,0.970126,0.0001
7458,17.1624,0.950076,0.0001
7464,17.1669,0.961984,0.0001
7470,17.1713,0.940582,0.0001
7476,17.1757,0.962952,0.0001
7482,17.1801,1.025732,0.0001
7488,17.1845,0.924741,0.0001
7494,17.1888,0.94399,0.0001
7500,17.1931,0.997622,0.0001
7506,17.1974,1.018868,0.0001
7512,17.2017,0.969371,0.0001
7518,17.206,1.026458,0.0001
7524,17.2103,1.032794,0.0001
7530,17.2145,0.988869,0.0001
7536,17.2187,1.007245,0.0001
7542,17.2229,0.977278,0.0001
7548,17.2271,0.99405,0.0001
7554,17.2313,0.940083,0.0001
7560,17.2354,0.965216,0.0001
7566,17.2395,0.944727,0.0001
7572,17.2436,0.966267,0.0001
7578,17.2477,0.97667,0.0001
7584,17.2518,0.968573,0.0001
7590,17.2558,0.95992,0.0001
7596,17.2599,0.997818,0.0001
7602,17.2639,0.953963,0.0001
7608,17.2679,1.028082,0.0001
7614,17.2719,0.972774,0.0001
7620,17.2758,0.935283,0.0001
7626,17.2797,0.917192,0.0001
7632,17.2837,0.954168,0.0001
7638,17.2876,0.911691,0.0001
7644,17.2914,0.906871,0.0001
7650,17.2953,0.928839,0.0001
7656,17.2991,0.948523,0.0001
7662,17.303,0.970021,0.0001
7668,17.3068,0.906639,0.0001
7674,17.3105,0.971998,0.0001
7680,17.3143,0.848085,0.0001
7686,17.3181,0.89193,0.0001
7692,17.3218,0.927674,0.0001
7698,17.3255,0.908788,0.0001
7704,17.3292,0.932303,0.0001
7710,17.3328,0.913603,0.0001
7716,17.3365,0.876691,0.0001
7722,17.3401,0.922614,0.0001
7724,17.3413,0.927425,0.0001