File: data-release/xrd_measurements/Si/annealed-S-of-Q.dat
          0.025     0.00325644
          0.075     0.00440228
          0.125    0.006556809
          0.175     0.01337087
          0.225      0.0112195
          0.275     0.01267421
          0.325     0.01167351
          0.375     0.01378876
          0.425     0.01595414
          0.475     0.01325327
          0.525     0.02058792
          0.575     0.02151221
          0.625     0.02632439
          0.675     0.03529036
          0.725     0.04309607
          0.775     0.04996955
          0.825     0.05608416
      0.8749999     0.06157267
          0.925     0.06653959
          0.975     0.07106704
          1.025     0.07522112
          1.075     0.07905591
          1.125     0.08261424
          1.175     0.08593357
          1.225      0.0745576
          1.275       0.105731
          1.325     0.08290118
          1.375      0.1216516
          1.425      0.1399979
          1.475      0.1648353
          1.525      0.2008774
          1.575      0.2171321
          1.625      0.2931545
          1.675      0.3556257
          1.725      0.5113487
          1.775      0.7155502
          1.825      0.9582766
          1.875       1.278515
          1.925       1.504255
          1.975       1.790117
          2.025       1.748515
          2.075       1.612606
          2.125       1.411708
          2.175       1.153087
          2.225      0.9925503
          2.275      0.8355226
          2.325      0.7133628
          2.375      0.6369365
          2.425      0.5797113
          2.475       0.538084
          2.525      0.5053592
          2.575      0.4795064
          2.625      0.4879097
          2.675      0.4850662
          2.725      0.4823681
          2.775      0.5428137
          2.825      0.5566113
          2.875      0.6108671
          2.925      0.6407261
          2.975      0.6903628
          3.025       0.772631
          3.075       0.827032
          3.125      0.9520022
          3.175        1.05466
          3.225       1.167171
          3.275       1.329568
          3.325       1.454442
          3.375       1.576608
          3.425       1.739298
          3.475       1.891615
          3.525       1.989389
          3.575       2.075047
          3.625       2.075919
          3.675       2.051892
          3.725       2.008851
          3.775        1.81435
          3.825       1.658815
          3.875       1.509425
          3.925       1.234729
          3.975       1.041492
          4.025      0.8883343
          4.075      0.7581296
          4.125      0.6747096
          4.175      0.5901645
          4.225      0.5390563
          4.275      0.5169935
          4.325      0.5056282
          4.375      0.4831918
          4.425      0.4863352
          4.475      0.4944625
          4.525      0.4882233
          4.575      0.5047401
          4.625      0.5327507
          4.675      0.5589825
          4.725      0.5774726
          4.775      0.5964942
          4.825      0.6088746
          4.875      0.6660287
          4.925      0.6897821
          4.975      0.7570078
          5.025      0.7980136
          5.075      0.8309496
          5.125      0.8938472
          5.175      0.9595423
          5.225       1.011948
          5.275       1.064062
          5.325       1.091951
          5.375       1.159712
          5.425       1.203609
          5.475       1.220753
          5.525       1.272143
          5.575       1.294378
          5.625       1.309378
          5.675       1.363281
          5.725        1.35929
          5.775       1.317908
          5.825       1.306982
          5.875       1.280412
          5.925        1.23113
          5.975       1.205344
          6.025       1.168203
          6.075       1.083503
          6.125       1.044349
          6.175       1.010368
          6.225      0.9815503
          6.275      0.9793338
          6.325      0.9644338
          6.375      0.9783639
          6.425      0.9882255
          6.475      0.9849969
          6.525       1.002594
          6.575       1.018127
          6.625       1.037634
          6.675       1.045971
          6.725       1.057564
          6.775       1.070964
          6.825       1.082236
          6.875       1.091836
          6.925       1.071977
          6.975       1.035742
          7.025      0.9829053
          7.075      0.9541876
          7.125      0.9042723
          7.175      0.8533528
          7.225      0.8391551
          7.275      0.8393565
          7.325      0.8163088
          7.375       0.782074
          7.425      0.7571958
          7.475      0.7646733
          7.525      0.7933286
          7.575      0.7835186
          7.625      0.8033785
          7.675      0.8236896
          7.725      0.8581244
          7.775      0.8564461
          7.825      0.8783942
          7.875      0.8899125
          7.925      0.9352207
          7.975      0.9399323
          8.025      0.9650073
          8.075      0.9734437
          8.125       1.039267
          8.175        1.03484
          8.225       1.049713
          8.275       1.081689
          8.325       1.094125
          8.375       1.126068
          8.425       1.103177
          8.475       1.116351
          8.525       1.117924
          8.575       1.181729
          8.625       1.159159
          8.675       1.238794
          8.725       1.219689
          8.775       1.208829
          8.825       1.217623
          8.875       1.208012
          8.925       1.181382
          8.975       1.205895
          9.025       1.165486
          9.075       1.115622
          9.125       1.085314
          9.175       1.077914
          9.225      0.9956699
          9.275       0.973464
          9.325      0.9800867
          9.375      0.9396604
          9.425      0.9120384
          9.475      0.9292399
          9.525      0.8841248
          9.575      0.9011673
          9.625      0.8623621
          9.675      0.8750884
          9.725      0.8759819
          9.775      0.8463155
          9.825      0.8555346
          9.875      0.8789734
          9.925      0.8693474
          9.975      0.8888361
         10.025      0.8641889
         10.075      0.8896213
         10.125      0.8879979
         10.175      0.8874582
         10.225      0.8970124
         10.275      0.9017473
         10.325      0.8996359
         10.375      0.9080614
         10.425      0.9170045
         10.475      0.9273567
         10.525      0.9428604
         10.575      0.9678164
         10.625      0.9961077
         10.675      0.9906282
         10.725       1.008282
         10.775        1.03299
         10.825       1.042802
         10.875       1.060534
         10.925       1.058474
         10.975       1.085035
         11.025       1.082079
         11.075       1.087094
         11.125       1.089481
         11.175       1.104466
         11.225       1.113357
         11.275       1.123819
         11.325       1.118065
         11.375       1.106945
         11.425        1.09943
         11.475        1.10285
         11.525       1.101568
         11.575       1.083646
         11.625       1.076256
         11.675       1.073733
         11.725       1.060901
         11.775       1.062773
         11.825       1.067373
         11.875       1.048147
         11.925       1.018875
         11.975       1.008252
         12.025       1.006688
         12.075      0.9964647
         12.125      0.9932764
         12.175      0.9925856
         12.225      0.9750946
         12.275      0.9544937
         12.325      0.9483591
         12.375      0.9350565
         12.425      0.9217817
         12.475      0.9184728
         12.525      0.9049369
         12.575      0.8997617
         12.625      0.9028155
         12.675      0.8965793
         12.725      0.8937901
         12.775      0.8943709
         12.825      0.9018525
         12.875      0.9085671
         12.925      0.9136345
         12.975      0.9188376
         13.025      0.9323474
         13.075      0.9516161
         13.125      0.9467741
         13.175       0.947102
         13.225       0.970614
         13.275      0.9811842
         13.325      0.9868782
         13.375      0.9993169
         13.425       1.012541
         13.475       1.020552
         13.525       1.025563
         13.575       1.038476
         13.625       1.046568
         13.675       1.051667
         13.725       1.056195
         13.775       1.063569
         13.825       1.062564
         13.875       1.069564
         13.925       1.078063
         13.975       1.077571
         14.025       1.079014
         14.075        1.08611
         14.125         1.0812
         14.175       1.075473
         14.225       1.070221
         14.275       1.056795
         14.325       1.061497
         14.375        1.05879
         14.425       1.046115
         14.475       1.055179
         14.525       1.056603
         14.575       1.040081
         14.625       1.034926
         14.675       1.016497
         14.725       1.000776
         14.775      0.9970224
         14.825      0.9881497
         14.875      0.9745477
         14.925      0.9739509
         14.975      0.9587669
         15.025      0.9426518
         15.075      0.9332052
         15.125      0.9316815
         15.175      0.9377851
         15.225      0.9225901
         15.275       0.915589
         15.325      0.9253084
         15.375      0.9291363
         15.425      0.9276476
         15.475       0.933334
         15.525      0.9367027
         15.575      0.9415658
         15.625      0.9442859
         15.675      0.9503248
         15.725      0.9643727
         15.775      0.9774424
         15.825       0.975293
         15.875       0.963868
         15.925      0.9690897
         15.975      0.9782575
         16.025      0.9940096
         16.075       1.007835
         16.125       1.009136
         16.175       1.015927
         16.225       1.021703
         16.275       1.043886
         16.325       1.063896
         16.375       1.054812
         16.425       1.046642
         16.475       1.052994
         16.525       1.056282
         16.575       1.055537
         16.625       1.051557
         16.675       1.045472
         16.725       1.059138
         16.775       1.065966
         16.825       1.048044
         16.875       1.035255
         16.925       1.051849
         16.975        1.04877
         17.025       1.021515
         17.075       1.018003
         17.125       1.023589
         17.175       1.015833
         17.225       1.004004
         17.275       1.017699
         17.325       1.010931
         17.375      0.9977553
         17.425      0.9993238
         17.475      0.9996524
         17.525      0.9955108
         17.575      0.9813198
         17.625       0.974772
         17.675      0.9678144
         17.725      0.9570259
         17.775      0.9603602
         17.825      0.9693692
         17.875      0.9644247
         17.925      0.9475228
         17.975      0.9527146
         18.025      0.9623754
         18.075      0.9564315
         18.125      0.9536958
         18.175      0.9534665
         18.225       0.949981
         18.275      0.9548569
         18.325      0.9670291
         18.375      0.9699252
         18.425      0.9691744
         18.475      0.9734392
         18.525      0.9868659
         18.575      0.9909812
         18.625      0.9934701
         18.675      0.9992414
         18.725       1.005125
         18.775       1.001246
         18.825      0.9997742
         18.875       1.008079
         18.925       1.023363
         18.975       1.045979
         19.025       1.037769
         19.075       1.017705
         19.125       1.028995
         19.175       1.047351
         19.225       1.039319
         19.275       1.039106
         19.325       1.040028
         19.375       1.026855
         19.425       1.033566
         19.475       1.043355
         19.525       1.046129
         19.575       1.036267
         19.625       1.019697
         19.675       1.019888
         19.725       1.024649
         19.775       1.016278
         19.825       1.010915
         19.875       1.008071
         19.925       1.007584
         19.975       1.004715
         20.025      0.9996181
         20.075       1.003497
         20.125      0.9937859
         20.175      0.9803699
         20.225      0.9791819
         20.275      0.9785844
         20.325      0.9791123
         20.375      0.9784516
         20.425       0.975569
         20.475      0.9748653
         20.525      0.9749431
         20.575      0.9741772
         20.625      0.9719045
         20.675      0.9746282
         20.725      0.9731461
         20.775       0.967427
         20.825      0.9772844
         20.875      0.9814284
         20.925      0.9715901
         20.975      0.9794484
         21.025      0.9787779
         21.075      0.9886227
         21.125      0.9971702
         21.175      0.9836022
         21.225       0.980063
         21.275      0.9862634
         21.325       1.006873
         21.375       1.011491
         21.425       1.004067
         21.475       1.004539
         21.525       1.003235
         21.575       0.997245
         21.625       1.006379
         21.675       1.021099
         21.725       1.021073
         21.775       1.021951
         21.825       1.022288
         21.875       1.021855
         21.925       1.020983
         21.975       1.017063
         22.025       1.019647
         22.075       1.020889
         22.125        1.02629
         22.175       1.029349
         22.225       1.015279
         22.275       1.008393
         22.325       1.009742
         22.375        1.01705
         22.425       1.017594
         22.475       1.013747
         22.525       1.011307
         22.575       1.007902
         22.625       1.000387
         22.675      0.9938817
         22.725      0.9882211
         22.775      0.9902707
         22.825       1.011161
         22.875       1.001446
         22.925      0.9935099
         22.975       0.995945
         23.025      0.9939948
         23.075      0.9961883
         23.125      0.9885885
         23.175      0.9751742
         23.225      0.9671857
         23.275      0.9848268
         23.325      0.9842457
         23.375      0.9757925
         23.425      0.9788198
         23.475      0.9725851
         23.525      0.9845569
         23.575      0.9972644
         23.625      0.9966522
         23.675      0.9954844
         23.725      0.9858075
         23.775      0.9861412
         23.825       0.990087
         23.875       0.983108
         23.925      0.9901344
         23.975      0.9910995
         24.025      0.9921641
         24.075        1.00604
         24.125       1.012064
         24.175       1.020993
         24.225       1.019912
         24.275       1.019998
         24.325       1.015167
         24.375       1.002045
         24.425       1.013336
         24.475       1.021227
         24.525       1.009234
         24.575       1.008846
         24.625       1.014503
         24.675       1.016472
         24.725       1.018161
         24.775       1.015636
         24.825       1.005118
         24.875      0.9918466
         24.925      0.9976525
         24.975       1.014321
         25.025       1.008514
         25.075       1.004874
         25.125      0.9995098
         25.175      0.9950515
         25.225      0.9992859
         25.275      0.9987233
         25.325       1.006918
         25.375       1.000559
         25.425      0.9973749
         25.475      0.9973545
         25.525       1.007619
         25.575       1.001081
         25.625      0.9869961
         25.675      0.9901415
         25.725      0.9920228
         25.775       1.000952
         25.825      0.9911994
         25.875      0.9797786
         25.925      0.9880676
         25.975      0.9961131
         26.025      0.9885163
         26.075      0.9878106
         26.125      0.9924932
         26.175      0.9846809
         26.225      0.9821419
         26.275      0.9842089
         26.325      0.9874031
         26.375       0.990402
         26.425       0.986208
         26.475       0.992718
         26.525      0.9998754
         26.575       0.995666
         26.625        1.00129
         26.675       1.000823
         26.725       1.006269
         26.775       1.013911
         26.825       1.002839
         26.875       1.007417
         26.925       1.011076
         26.975       1.012251
         27.025       1.021517
         27.075       1.023657
         27.125       1.013954
         27.175       1.011422
         27.225       1.011539
         27.275        1.00098
         27.325       1.004259
         27.375        1.00956
         27.425       1.010826
         27.475       1.018362
         27.525       1.016879
         27.575       1.003769
         27.625       1.002766
         27.675       1.007825
         27.725       1.006353
         27.775       1.000403
         27.825      0.9955559
         27.875      0.9950032
         27.925      0.9974101
         27.975      0.9986108
         28.025       1.004006
         28.075      0.9917299
         28.125       0.991852
         28.175       1.009122
         28.225        1.00336
         28.275      0.9950056
         28.325      0.9837288
         28.375      0.9888639
         28.425      0.9959596
         28.475       0.982448
         28.525      0.9792075
         28.575      0.9836783
         28.625      0.9825915
         28.675      0.9836469
         28.725      0.9934623
         28.775      0.9959562
         28.825      0.9938077
         28.875      0.9924668
         28.925      0.9830326
         28.975      0.9945581
         29.025       1.000694
         29.075      0.9977169
         29.125       1.001674
         29.175       0.992092
         29.225      0.9824846
         29.275      0.9873825
         29.325       1.000368
         29.375       1.007324
         29.425       1.004146
         29.475       1.005567
         29.525       1.010266
         29.575       1.013626
         29.625       1.018379
         29.675       1.013904
         29.725        1.00161
         29.775      0.9998817
         29.825       1.011186
         29.875       1.019446
         29.925       1.019685
         29.975        1.01598
         30.025       1.021898
         30.075       1.017222
         30.125       1.003955
         30.175       1.005302
         30.225       1.007788
         30.275       1.001373
         30.325      0.9998755
         30.375       1.000805
         30.425      0.9947697
         30.475      0.9997115
         30.525       1.006795
         30.575       1.008288
         30.625       1.004566
         30.675       1.003131
         30.725       1.011773
         30.775         1.0097
         30.825      0.9940427
         30.875      0.9886461
         30.925      0.9802556
         30.975      0.9888591
         31.025      0.9926561
         31.075      0.9822539
         31.125      0.9877902
         31.175      0.9873238
         31.225      0.9878723
         31.275      0.9968677
         31.325      0.9928955
         31.375      0.9767603
         31.425      0.9823188
         31.475      0.9932642
         31.525      0.9893293
         31.575      0.9893711
         31.625      0.9997721
         31.675       1.000866
         31.725       1.003274
         31.775      0.9972132
         31.825      0.9916669
         31.875      0.9947689
         31.925        1.00148
         31.975      0.9981849
         32.025      0.9922673
         32.075       1.004534
         32.125       1.001891
         32.175       1.015685
         32.225       1.021137
         32.275       1.002162
         32.325       1.017352
         32.375       1.024182
         32.425       1.009026
         32.475       1.002673
         32.525       1.000226
         32.575       1.001639
         32.625      0.9952501
         32.675      0.9963046
         32.725       1.010445
         32.775       1.011664
         32.825       1.005843
         32.875       1.007257
         32.925        1.00833
         32.975       1.002551
         33.025      0.9969997
         33.075      0.9983912
         33.125      0.9950916
         33.175       1.004391
         33.225       1.014044
         33.275      0.9980922
         33.325      0.9988686
         33.375       1.012159
         33.425       1.001159
         33.475      0.9909667
         33.525      0.9958034
         33.575      0.9961609
         33.625       0.983599
         33.675      0.9761418
         33.725      0.9941995
         33.775       1.009373
         33.825       1.013871
         33.875       1.010171
         33.925       1.002112
         33.975       0.989931
         34.025      0.9837265
         34.075       0.999442
         34.125      0.9990844
         34.175      0.9889573
         34.225      0.9919012
         34.275      0.9896632
         34.325      0.9886752
         34.375      0.9951746
         34.425      0.9979082
         34.475       1.005365
         34.525       1.012737
         34.575       1.004551
         34.625      0.9882957
         34.675      0.9876869
         34.725        0.99392
         34.775      0.9979107
         34.825       1.006981
         34.875       1.011505
         34.925       1.000456
         34.975      0.9882931
         35.025      0.9915977
         35.075       1.008305
         35.125       1.009081
         35.175       1.008951
         35.225       1.013117
         35.275      0.9959676
         35.325       1.000651
         35.375       1.013944
         35.425       1.007661
         35.475       1.003108
         35.525      0.9904436
         35.575      0.9856185
         35.625       1.009363
         35.675       1.012082
         35.725        1.00336
         35.775       0.998932
         35.825       1.005922
         35.875       1.006839
         35.925      0.9904325
         35.975      0.9950384
         36.025       1.008753
         36.075       1.008833
         36.125       1.002556
         36.175       1.001924
         36.225       1.001311
         36.275        1.00438
         36.325      0.9953436
         36.375      0.9954227
         36.425       1.005919
         36.475       1.001184
         36.525      0.9960354
         36.575      0.9837385
         36.625      0.9942803
         36.675       1.005996
         36.725      0.9941105
         36.775       1.006611
         36.825       1.017309
         36.875       1.000726
         36.925       0.997201
         36.975      0.9920768
         37.025      0.9935113
         37.075       1.006256
         37.125      0.9945604
         37.175      0.9963831
         37.225      0.9995202
         37.275      0.9999926
         37.325      0.9915888
         37.375      0.9840903
         37.425      0.9998709
         37.475      0.9969937
         37.525      0.9845263
         37.575      0.9868336
         37.625      0.9907614
         37.675      0.9889851
         37.725       1.003272
         37.775      0.9970682
         37.825       1.000051
         37.875       1.013188
         37.925       1.004777
         37.975        1.01286
         38.025       1.012323
         38.075      0.9939339
         38.125      0.9934347
         38.175        1.00521
         38.225       1.008334
         38.275       1.013788
         38.325       1.013635
         38.375      0.9861345
         38.425      0.9850204
         38.475       1.005702
         38.525       1.007196
         38.575       1.011765
         38.625       1.011307
         38.675       1.011547
         38.725       1.011695
         38.775       1.001353
         38.825      0.9927994
         38.875      0.9984606
         38.925        1.01164
         38.975       1.005111
         39.025      0.9931237
         39.075      0.9968604
         39.125       1.002165
         39.175       1.012597
         39.225       1.002418
         39.275      0.9792476
         39.325      0.9834625
         39.375      0.9995892
         39.425      0.9933435
         39.475      0.9948186
         39.525      0.9978163
         39.575      0.9901375
         39.625      0.9894157
         39.675      0.9757085
         39.725      0.9783032
         39.775       1.008131
         39.825       1.007931
         39.875       1.012498
         39.925       1.026492
         39.975       1.012767
         40.025      0.9942691
         40.075      0.9920787
         40.125       1.011698
         40.175       1.010941
         40.225      0.9960912
         40.275       1.004323
         40.325       1.004714
         40.375      0.9988077
         40.425        1.00191
         40.475       0.991116
         40.525       0.994477
         40.575      0.9969727
         40.625      0.9973565
         40.675       1.005494
         40.725       1.003506
         40.775      0.9999996
         40.825       1.001342
         40.875      0.9950131
         40.925      0.9948858
         40.975      0.9943218
         41.025      0.9930676
         41.075       1.007102
         41.125       1.014804
         41.175       1.006761
         41.225      0.9977382
         41.275      0.9895935
         41.325      0.9818532
         41.375       0.996141
         41.425       1.000555
         41.475       1.002059
         41.525       1.007287
         41.575      0.9948218
         41.625      0.9975728
         41.675       1.014264
         41.725       1.003245
         41.775       1.001639
         41.825      0.9962112
         41.875      0.9938828
         41.925       1.006236
         41.975      0.9994339
         42.025      0.9966346
         42.075      0.9934837
         42.125      0.9948187
         42.175        1.00335
         42.225       1.001405
         42.275       1.000942
         42.325       1.011076
         42.375        1.00326
         42.425      0.9882054
         42.475      0.9933423
         42.525      0.9987265
         42.575      0.9990654
         42.625       1.005449
         42.675       1.017693
         42.725       1.013165
         42.775        1.00943
         42.825      0.9989582
         42.875      0.9929323
         42.925       1.002522
         42.975      0.9843519
         43.025      0.9877491
         43.075       1.007344
         43.125      0.9994634
         43.175      0.9960623
         43.225       1.004565
         43.275      0.9950227
         43.325      0.9941691
         43.375       1.011536
         43.425       1.007043
         43.475      0.9991657
         43.525       1.007223
         43.575       1.002619
         43.625       1.000653
         43.675       1.005063
         43.725      0.9920297
         43.775      0.9842001
         43.825      0.9923252
         43.875       1.001892
         43.925       1.009797
         43.975       1.014103
         44.025       1.002865
         44.075      0.9928486
         44.125       1.001786
         44.175       1.007363
         44.225        1.00312
         44.275       1.000785
         44.325      0.9904413
         44.375      0.9853288
         44.425      0.9958231
         44.475      0.9835064
         44.525      0.9742302
         44.575      0.9995242
         44.625       1.012136
         44.675       1.012438
         44.725       1.012969
         44.775       1.006125
         44.825      0.9979556
         44.875       1.006707
         44.925       1.000329
         44.975      0.9771107
         45.025      0.9893782
         45.075       1.008953
         45.125       1.003712
         45.175       1.004551
         45.225        1.00954
         45.275      0.9968003
         45.325      0.9972945
         45.375       1.009308
         45.425       1.009969
         45.475       1.001756
         45.525      0.9988636
         45.575       1.009157
         45.625       1.009894
         45.675      0.9920217
         45.725      0.9789478
         45.775      0.9883187
         45.825      0.9995441
         45.875      0.9984346
         45.925      0.9907659
         45.975      0.9907636
         46.025       1.002578
         46.075      0.9996632
         46.125       0.995819
         46.175      0.9940692
         46.225       1.001152
         46.275       1.009536
         46.325       1.001025
         46.375       1.007896
         46.425         1.0046
         46.475      0.9988214
         46.525       1.010947
         46.575       1.006993
         46.625       1.010022
         46.675       1.015037
         46.725       1.005462
         46.775       1.002448
         46.825      0.9967467
         46.875       1.001741
         46.925       1.009756
         46.975       0.998599
         47.025      0.9966362
         47.075      0.9960418
         47.125      0.9889556
         47.175      0.9952761
         47.225      0.9965507
         47.275      0.9934897
         47.325       0.993032
         47.375       1.005083
         47.425       1.010941
         47.475       0.985421
         47.525      0.9880542
         47.575      0.9991611
         47.625      0.9968366
         47.675       1.012205
         47.725       1.004614
         47.775      0.9924605
         47.825       1.005059
         47.875        1.00887
         47.925      0.9920893
         47.975      0.9947882
         48.025       1.009493
         48.075      0.9954774
         48.125      0.9804702
         48.175      0.9776672
         48.225      0.9968421
         48.275       1.004555
         48.325       1.003562
         48.375       1.015841
         48.425       1.021127
         48.475       1.014986
         48.525      0.9974224
         48.575      0.9957671
         48.625        1.00178
         48.675      0.9943861
         48.725      0.9927799
         48.775      0.9948864
         48.825      0.9857922
         48.875       0.989152
         48.925       1.008991
         48.975       1.013593
         49.025      0.9977705
         49.075       1.005033
         49.125       1.014223
         49.175       1.001537
         49.225       1.001414
         49.275       1.003018
         49.325      0.9952818
         49.375      0.9958781
         49.425      0.9974155
         49.475      0.9926326
         49.525       0.998092
         49.575      0.9879733
         49.625       1.000511
         49.675        1.01545
         49.725       1.001675
         49.775       0.993027
         49.825        1.00023
         49.875      0.9924167
         49.925      0.9814562
         49.975       1.001019
         50.025      0.9985035
         50.075      0.9949983
         50.125       1.002223
         50.175       1.012339
         50.225       1.010244
         50.275      0.9842054
         50.325      0.9906535
         50.375       1.022829
         50.425       1.026863
         50.475       1.016472
         50.525       1.020567
         50.575       1.015056
         50.625       1.000323
         50.675      0.9922791
         50.725       0.990978
         50.775      0.9841151
         50.825      0.9886262
         50.875       1.001267
         50.925       1.006485
         50.975      0.9988514
         51.025      0.9885313
         51.075      0.9980422
         51.125      0.9974564
         51.175      0.9869061
         51.225      0.9903186
         51.275       0.995946
         51.325       1.008834
         51.375        1.01842
         51.425       1.004299
         51.475      0.9937723
         51.525      0.9852863
         51.575      0.9975961
         51.625       1.003133
         51.675      0.9972211
         51.725       1.004105
         51.775      0.9947363
         51.825      0.9862055
         51.875      0.9963572
         51.925       1.014656
         51.975       1.021134
         52.025      0.9979075
         52.075      0.9852747
         52.125      0.9992676
         52.175       1.012676
         52.225       1.012915
         52.275       1.004956
         52.325       1.004299
         52.375      0.9910416
         52.425      0.9860879
         52.475      0.9971226
         52.525      0.9957249
         52.575      0.9871601
         52.625      0.9892379
         52.675       1.019366
         52.725       1.009447
         52.775      0.9745942
         52.825      0.9840837
         52.875        1.00366
         52.925      0.9995875
         52.975      0.9874481
         53.025      0.9861028
         53.075       1.006108
         53.125       1.016809
         53.175       1.013816
         53.225       1.011469
         53.275       1.001273
         53.325       1.004778
         53.375        1.00265
         53.425       1.006837
         53.475       1.006922
         53.525       0.992518
         53.575      0.9978019
         53.625       1.007111
         53.675       1.006182
         53.725       1.005643
         53.775      0.9984654
         53.825      0.9956563
         53.875       1.003603
         53.925       1.006414
         53.975       1.006159
         54.025       1.009984
         54.075       1.014934
         54.125      0.9976671
         54.175      0.9882816
         54.225      0.9983161
         54.275      0.9949611
         54.325       1.000132
         54.375       1.002642
         54.425      0.9934045
         54.475       1.000442
         54.525       1.004976
         54.575      0.9912616
         54.625      0.9897511
         54.675         1.0017
         54.725      0.9849461
         54.775      0.9875835
         54.825       1.006313
         54.875      0.9966608
         54.925      0.9886636
         54.975      0.9807498
             55      0.9751604