File: data-release/xrd_measurements/GeO2/I_Q
 IOP Conf. Series 107(1990)193
 Fig 8
 Q, i(Q), E(Q)
  0.400000E-01 -0.404879E+00  0.000000E+00
  0.120000E+00 -0.404517E+00  0.000000E+00
  0.200000E+00 -0.405230E+00  0.000000E+00
  0.280000E+00 -0.405327E+00  0.757398E-03
  0.360000E+00 -0.402540E+00  0.102957E-02
  0.440000E+00 -0.395851E+00  0.135800E-02
  0.520000E+00 -0.387066E+00  0.676990E-03
  0.600000E+00 -0.378699E+00  0.755646E-03
  0.680000E+00 -0.368932E+00  0.869164E-03
  0.760000E+00 -0.355431E+00  0.980540E-03
  0.840000E+00 -0.340118E+00  0.111679E-02
  0.920000E+00 -0.323551E+00  0.120690E-02
  0.100000E+01 -0.299441E+00  0.133342E-02
  0.108000E+01 -0.261662E+00  0.552841E-03
  0.116000E+01 -0.206792E+00  0.603791E-03
  0.124000E+01 -0.130975E+00  0.686019E-03
  0.132000E+01 -0.302646E-01  0.788286E-03
  0.140000E+01  0.735787E-01  0.941473E-03
  0.148000E+01  0.133459E+00  0.105916E-02
  0.156000E+01  0.134284E+00  0.113822E-02
  0.164000E+01  0.885173E-01  0.117985E-02
  0.172000E+01  0.220808E-01  0.609623E-03
  0.180000E+01 -0.350833E-01  0.580655E-03
  0.188000E+01 -0.774116E-01  0.561306E-03
  0.196000E+01 -0.109213E+00  0.550168E-03
  0.204000E+01 -0.131081E+00  0.544480E-03
  0.212000E+01 -0.143084E+00  0.545248E-03
  0.220000E+01 -0.147818E+00  0.549922E-03
  0.228000E+01 -0.147765E+00  0.565767E-03
  0.236000E+01 -0.143431E+00  0.575442E-03
  0.244000E+01 -0.135613E+00  0.593885E-03
  0.252000E+01 -0.126479E+00  0.610602E-03
  0.260000E+01 -0.119715E+00  0.622226E-03
  0.268000E+01 -0.121105E+00  0.631158E-03
  0.276000E+01 -0.130935E+00  0.637331E-03
  0.284000E+01 -0.142049E+00  0.639606E-03
  0.292000E+01 -0.150460E+00  0.645244E-03
  0.300000E+01 -0.156126E+00  0.552185E-03
  0.308000E+01 -0.158926E+00  0.559532E-03
  0.316000E+01 -0.158539E+00  0.563650E-03
  0.324000E+01 -0.155154E+00  0.570000E-03
  0.332000E+01 -0.149299E+00  0.578868E-03
  0.340000E+01 -0.141025E+00  0.592995E-03
  0.348000E+01 -0.130093E+00  0.604336E-03
  0.356000E+01 -0.116328E+00  0.624453E-03
  0.364000E+01 -0.996037E-01  0.641793E-03
  0.372000E+01 -0.798793E-01  0.662923E-03
  0.380000E+01 -0.570635E-01  0.691550E-03
  0.388000E+01 -0.304680E-01  0.716814E-03
  0.396000E+01  0.657464E-03  0.748460E-03
  0.404000E+01  0.360369E-01  0.779283E-03
  0.412000E+01  0.744939E-01  0.818311E-03
  0.420000E+01  0.112047E+00  0.851795E-03
  0.428000E+01  0.144351E+00  0.888882E-03
  0.436000E+01  0.169821E+00  0.917328E-03
  0.444000E+01  0.187897E+00  0.943766E-03
  0.452000E+01  0.198839E+00  0.964823E-03
  0.460000E+01  0.203455E+00  0.983219E-03
  0.468000E+01  0.203961E+00  0.993893E-03
  0.476000E+01  0.202157E+00  0.100460E-02
  0.484000E+01  0.195968E+00  0.101690E-02
  0.492000E+01  0.182067E+00  0.102038E-02
  0.500000E+01  0.156542E+00  0.101663E-02
  0.508000E+01  0.116729E+00  0.996989E-03
  0.516000E+01  0.673492E-01  0.967172E-03
  0.524000E+01  0.155205E-01  0.935435E-03
  0.532000E+01 -0.316073E-01  0.908575E-03
  0.540000E+01 -0.677649E-01  0.889975E-03
  0.548000E+01 -0.924897E-01  0.886989E-03
  0.556000E+01 -0.107705E+00  0.881935E-03
  0.564000E+01 -0.115805E+00  0.887731E-03
  0.572000E+01 -0.119265E+00  0.901410E-03
  0.580000E+01 -0.119285E+00  0.913482E-03
  0.588000E+01 -0.116438E+00  0.929497E-03
  0.596000E+01 -0.112354E+00  0.939244E-03
  0.604000E+01 -0.109274E+00  0.960372E-03
  0.612000E+01 -0.107498E+00  0.971118E-03
  0.620000E+01 -0.105696E+00  0.990979E-03
  0.628000E+01 -0.103356E+00  0.995502E-03
  0.636000E+01 -0.100928E+00  0.102080E-02
  0.644000E+01 -0.982584E-01  0.101972E-02
  0.652000E+01 -0.942339E-01  0.104669E-02
  0.660000E+01 -0.879815E-01  0.106186E-02
  0.668000E+01 -0.793008E-01  0.107784E-02
  0.675999E+01 -0.680575E-01  0.110030E-02
  0.683999E+01 -0.540601E-01  0.113179E-02
  0.691999E+01 -0.372801E-01  0.116351E-02
  0.699999E+01 -0.185475E-01  0.118414E-02
  0.707999E+01  0.100991E-02  0.121443E-02
  0.715999E+01  0.199880E-01  0.125359E-02
  0.723999E+01  0.368731E-01  0.128458E-02
  0.731999E+01  0.506132E-01  0.130716E-02
  0.739999E+01  0.605345E-01  0.133744E-02
  0.747999E+01  0.660879E-01  0.134627E-02
  0.755999E+01  0.668815E-01  0.135843E-02
  0.763999E+01  0.631928E-01  0.136758E-02
  0.771999E+01  0.569126E-01  0.135988E-02
  0.779999E+01  0.500402E-01  0.137557E-02
  0.787999E+01  0.439249E-01  0.137485E-02
  0.795999E+01  0.396249E-01  0.137515E-02
  0.803999E+01  0.371820E-01  0.138554E-02
  0.811999E+01  0.360300E-01  0.138224E-02
  0.819999E+01  0.359730E-01  0.139496E-02
  0.827999E+01  0.372795E-01  0.141129E-02
  0.835999E+01  0.397568E-01  0.142254E-02
  0.843999E+01  0.419106E-01  0.142643E-02
  0.851999E+01  0.422833E-01  0.144271E-02
  0.859999E+01  0.410648E-01  0.144338E-02
  0.867999E+01  0.390620E-01  0.144970E-02
  0.875999E+01  0.360182E-01  0.145532E-02
  0.883999E+01  0.306528E-01  0.146060E-02
  0.891999E+01  0.224107E-01  0.145986E-02
  0.899999E+01  0.125816E-01  0.145146E-02
  0.907999E+01  0.256034E-02  0.144947E-02
  0.915999E+01 -0.744822E-02  0.144785E-02
  0.923999E+01 -0.177435E-01  0.143950E-02
  0.931999E+01 -0.282096E-01  0.143947E-02
  0.939999E+01 -0.382274E-01  0.142528E-02
  0.947999E+01 -0.471371E-01  0.142532E-02
  0.955999E+01 -0.542405E-01  0.143544E-02
  0.963999E+01 -0.588873E-01  0.142425E-02
  0.971999E+01 -0.612958E-01  0.143337E-02
  0.979999E+01 -0.623577E-01  0.144267E-02
  0.987999E+01 -0.625642E-01  0.144192E-02
  0.995999E+01 -0.613194E-01  0.146185E-02
  0.100400E+02 -0.579823E-01  0.146390E-02
  0.101200E+02 -0.533717E-01  0.147933E-02
  0.102000E+02 -0.492311E-01  0.149992E-02
  0.102800E+02 -0.464896E-01  0.150036E-02
  0.103600E+02 -0.440886E-01  0.150867E-02
  0.104400E+02 -0.407705E-01  0.153300E-02
  0.105200E+02 -0.364223E-01  0.153970E-02
  0.106000E+02 -0.317008E-01  0.155117E-02
  0.106800E+02 -0.270324E-01  0.158203E-02
  0.107600E+02 -0.221200E-01  0.157940E-02
  0.108400E+02 -0.165404E-01  0.160493E-02
  0.109200E+02 -0.100113E-01  0.161512E-02
  0.110000E+02 -0.238219E-02  0.163591E-02
  0.110800E+02  0.642100E-02  0.165161E-02
  0.111600E+02  0.161109E-01  0.168855E-02
  0.112400E+02  0.262856E-01  0.170569E-02
  0.113200E+02  0.365061E-01  0.171095E-02
  0.114000E+02  0.462685E-01  0.175199E-02
  0.114800E+02  0.550335E-01  0.176747E-02
  0.115600E+02  0.618700E-01  0.177986E-02
  0.116400E+02  0.655673E-01  0.180256E-02
  0.117200E+02  0.653066E-01  0.180165E-02
  0.118000E+02  0.621936E-01  0.181686E-02
  0.118800E+02  0.579113E-01  0.181273E-02
  0.119600E+02  0.533556E-01  0.181835E-02
  0.120400E+02  0.477344E-01  0.180292E-02
  0.121200E+02  0.400771E-01  0.180657E-02
  0.122000E+02  0.305297E-01  0.179693E-02
  0.122800E+02  0.204792E-01  0.180763E-02
  0.123600E+02  0.112890E-01  0.178716E-02
  0.124400E+02  0.331468E-02  0.179230E-02
  0.125200E+02 -0.372933E-02  0.177251E-02
  0.126000E+02 -0.101361E-01  0.177670E-02
  0.126800E+02 -0.161828E-01  0.177864E-02
  0.127600E+02 -0.221402E-01  0.177747E-02
  0.128400E+02 -0.281276E-01  0.178013E-02
  0.129200E+02 -0.336472E-01  0.175511E-02
  0.130000E+02 -0.380442E-01  0.176796E-02
  0.130800E+02 -0.409191E-01  0.175528E-02
  0.131600E+02 -0.426277E-01  0.177635E-02
  0.132400E+02 -0.436642E-01  0.179281E-02
  0.133200E+02 -0.443150E-01  0.178601E-02
  0.134000E+02 -0.443629E-01  0.179966E-02
  0.134800E+02 -0.435167E-01  0.182127E-02
  0.135600E+02 -0.416098E-01  0.181104E-02
  0.136400E+02 -0.387513E-01  0.184584E-02
  0.137200E+02 -0.350867E-01  0.184799E-02
  0.138000E+02 -0.307588E-01  0.188298E-02
  0.138800E+02 -0.259025E-01  0.188077E-02
  0.139600E+02 -0.206521E-01  0.189535E-02
  0.140400E+02 -0.152211E-01  0.192581E-02
  0.141200E+02 -0.100295E-01  0.192980E-02
  0.142000E+02 -0.553000E-02  0.192213E-02
  0.142800E+02 -0.199858E-02  0.196763E-02
  0.143600E+02  0.888990E-03  0.198814E-02
  0.144400E+02  0.358399E-02  0.200021E-02
  0.145200E+02  0.641899E-02  0.202664E-02
  0.146000E+02  0.912382E-02  0.203146E-02
  0.146800E+02  0.112375E-01  0.203681E-02
  0.147600E+02  0.123802E-01  0.203694E-02
  0.148400E+02  0.129012E-01  0.205508E-02
  0.149200E+02  0.135338E-01  0.205966E-02
  0.150000E+02  0.149836E-01  0.207704E-02
  0.150800E+02  0.172929E-01  0.211256E-02
  0.151600E+02  0.198666E-01  0.209654E-02
  0.152400E+02  0.220864E-01  0.212066E-02
  0.153200E+02  0.236275E-01  0.212080E-02
  0.154000E+02  0.247476E-01  0.215878E-02
  0.154800E+02  0.257730E-01  0.217752E-02
  0.155600E+02  0.269108E-01  0.217180E-02
  0.156400E+02  0.277586E-01  0.219133E-02
  0.157200E+02  0.277204E-01  0.218236E-02
  0.158000E+02  0.262330E-01  0.221350E-02
  0.158800E+02  0.233555E-01  0.220955E-02
  0.159600E+02  0.196990E-01  0.220128E-02
  0.160400E+02  0.158938E-01  0.220971E-02
  0.161200E+02  0.123300E-01  0.221302E-02
  0.162000E+02  0.872279E-02  0.221340E-02
  0.162800E+02  0.466935E-02  0.114026E-02
  0.163600E+02 -0.190151E-03  0.113482E-02
  0.164400E+02 -0.565937E-02  0.113773E-02
  0.165200E+02 -0.111544E-01  0.112964E-02
  0.166000E+02 -0.160834E-01  0.112592E-02
  0.166800E+02 -0.200352E-01  0.112355E-02
  0.167600E+02 -0.231334E-01  0.112520E-02
  0.168400E+02 -0.256009E-01  0.112377E-02
  0.169200E+02 -0.276507E-01  0.112588E-02
  0.170000E+02 -0.292833E-01  0.112969E-02
  0.170800E+02 -0.302891E-01  0.113151E-02
  0.171600E+02 -0.304495E-01  0.113145E-02
  0.172400E+02 -0.295932E-01  0.113570E-02
  0.173200E+02 -0.278463E-01  0.114061E-02
  0.174000E+02 -0.254513E-01  0.114149E-02
  0.174800E+02 -0.226507E-01  0.114698E-02
  0.175600E+02 -0.195951E-01  0.115874E-02
  0.176400E+02 -0.161852E-01  0.116589E-02
  0.177200E+02 -0.122801E-01  0.117341E-02
  0.178000E+02 -0.774246E-02  0.118081E-02
  0.178800E+02 -0.264011E-02  0.118920E-02
  0.179600E+02  0.265431E-02  0.120175E-02
  0.180400E+02  0.774339E-02  0.121211E-02
  0.181200E+02  0.122404E-01  0.121962E-02
  0.182000E+02  0.160050E-01  0.122603E-02
  0.182800E+02  0.191431E-01  0.123613E-02
  0.183600E+02  0.217712E-01  0.124495E-02
  0.184400E+02  0.239986E-01  0.125109E-02
  0.185200E+02  0.258146E-01  0.125774E-02
  0.186000E+02  0.271119E-01  0.126029E-02
  0.186800E+02  0.277805E-01  0.127081E-02
  0.187600E+02  0.277194E-01  0.127065E-02
  0.188401E+02  0.269682E-01  0.127442E-02
  0.189201E+02  0.256765E-01  0.127107E-02
  0.190001E+02  0.239968E-01  0.127630E-02
  0.190801E+02  0.220791E-01  0.127313E-02
  0.191601E+02  0.200219E-01  0.127611E-02
  0.192401E+02  0.178754E-01  0.127950E-02
  0.193201E+02  0.156882E-01  0.128120E-02
  0.194001E+02  0.135086E-01  0.128360E-02
  0.194801E+02  0.113747E-01  0.127977E-02
  0.195601E+02  0.931052E-02  0.127910E-02
  0.196401E+02  0.733932E-02  0.128099E-02
  0.197201E+02  0.548417E-02  0.128176E-02
  0.198001E+02  0.372931E-02  0.128825E-02
  0.198801E+02  0.196453E-02  0.129294E-02
  0.199601E+02  0.655343E-04  0.128840E-02
  0.200401E+02 -0.209197E-02  0.128935E-02
  0.201201E+02 -0.459455E-02  0.128625E-02
  0.202001E+02 -0.730318E-02  0.129387E-02
  0.202801E+02 -0.999538E-02  0.129438E-02
  0.203601E+02 -0.124485E-01  0.128884E-02
  0.204401E+02 -0.144452E-01  0.129696E-02
  0.205201E+02 -0.158995E-01  0.129563E-02
  0.206001E+02 -0.168642E-01  0.130403E-02
  0.206801E+02 -0.173986E-01  0.130091E-02
  0.207601E+02 -0.175621E-01  0.131374E-02
  0.208401E+02 -0.174018E-01  0.131661E-02
  0.209201E+02 -0.169159E-01  0.131948E-02
  0.210001E+02 -0.160905E-01  0.132171E-02
  0.210801E+02 -0.149120E-01  0.132442E-02
  0.211601E+02 -0.133672E-01  0.133100E-02
  0.212401E+02 -0.114705E-01  0.134051E-02
  0.213201E+02 -0.926828E-02  0.135190E-02
  0.214001E+02 -0.680896E-02  0.135535E-02
  0.214801E+02 -0.414088E-02  0.136255E-02
  0.215601E+02 -0.131391E-02  0.138105E-02
  0.216401E+02  0.160955E-02  0.138451E-02
  0.217201E+02  0.456105E-02  0.139471E-02
  0.218001E+02  0.747209E-02  0.140333E-02
  0.218801E+02  0.102742E-01  0.141005E-02
  0.219601E+02  0.129008E-01  0.142580E-02
  0.220401E+02  0.152930E-01  0.142944E-02
  0.221201E+02  0.173938E-01  0.143741E-02
  0.222001E+02  0.191461E-01  0.144068E-02
  0.222801E+02  0.204930E-01  0.145041E-02
  0.223601E+02  0.213983E-01  0.144860E-02
  0.224401E+02  0.218807E-01  0.145812E-02
  0.225201E+02  0.219680E-01  0.145986E-02
  0.226001E+02  0.216881E-01  0.146349E-02
  0.226801E+02  0.210687E-01  0.147125E-02
  0.227601E+02  0.201310E-01  0.146967E-02
  0.228401E+02  0.188803E-01  0.147768E-02
  0.229201E+02  0.173192E-01  0.147116E-02
  0.230001E+02  0.154505E-01  0.147784E-02
  0.230801E+02  0.132771E-01  0.147912E-02
  0.231602E+02  0.108223E-01  0.147177E-02
  0.232402E+02  0.817395E-02  0.147894E-02
  0.233202E+02  0.543274E-02  0.148023E-02
  0.234002E+02  0.269931E-02  0.148190E-02
  0.234802E+02  0.743182E-04  0.148225E-02
  0.235602E+02 -0.235219E-02  0.147925E-02
  0.236402E+02 -0.455146E-02  0.148498E-02
  0.237202E+02 -0.651673E-02  0.148536E-02
  0.238002E+02 -0.824129E-02  0.147998E-02
  0.238802E+02 -0.971841E-02  0.148753E-02
  0.239602E+02 -0.109413E-01  0.148059E-02
  0.240402E+02 -0.119019E-01  0.148713E-02
  0.241202E+02 -0.125910E-01  0.149077E-02
  0.242002E+02 -0.129996E-01  0.148956E-02
  0.242802E+02 -0.131183E-01  0.149357E-02
  0.243602E+02 -0.129381E-01  0.149860E-02
  0.244402E+02 -0.124577E-01  0.150419E-02
  0.245202E+02 -0.116992E-01  0.150375E-02
  0.246002E+02 -0.106890E-01  0.151548E-02
  0.246802E+02 -0.945351E-02  0.152035E-02
  0.247602E+02 -0.801900E-02  0.152176E-02
  0.248402E+02 -0.641203E-02  0.153116E-02
  0.249202E+02 -0.466192E-02  0.153611E-02
  0.250002E+02 -0.280066E-02  0.154523E-02
  0.250802E+02 -0.860348E-03  0.155334E-02
  0.251602E+02  0.112693E-02  0.156196E-02
  0.252402E+02  0.312907E-02  0.155736E-02
  0.253202E+02  0.511288E-02  0.156858E-02
  0.254002E+02  0.703701E-02  0.158513E-02
  0.254802E+02  0.885654E-02  0.159165E-02
  0.255602E+02  0.105265E-01  0.159176E-02
  0.256402E+02  0.120020E-01  0.159869E-02
  0.257202E+02  0.132381E-01  0.159980E-02
  0.258002E+02  0.141986E-01  0.161145E-02
  0.258802E+02  0.148888E-01  0.161793E-02
  0.259602E+02  0.153262E-01  0.162897E-02
  0.260402E+02  0.155283E-01  0.162689E-02
  0.261202E+02  0.155127E-01  0.164399E-02
  0.262002E+02  0.152969E-01  0.163183E-02
  0.262802E+02  0.148951E-01  0.163956E-02
  0.263602E+02  0.143043E-01  0.164833E-02
  0.264402E+02  0.135167E-01  0.164411E-02
  0.265202E+02  0.125242E-01  0.164836E-02
  0.266002E+02  0.113188E-01  0.165009E-02
  0.266802E+02  0.989268E-02  0.164860E-02
  0.267602E+02  0.824381E-02  0.165173E-02
  0.268402E+02  0.642076E-02  0.165889E-02
  0.269202E+02  0.449686E-02  0.165332E-02
  0.270002E+02  0.254564E-02  0.166263E-02
  0.270802E+02  0.640632E-03  0.165836E-02
  0.271602E+02 -0.114465E-02  0.165843E-02
  0.272402E+02 -0.273792E-02  0.165358E-02
  0.273202E+02 -0.410655E-02  0.166256E-02
  0.274002E+02 -0.526477E-02  0.166684E-02
  0.274802E+02 -0.622950E-02  0.167001E-02
  0.275603E+02 -0.701768E-02  0.167475E-02
  0.276403E+02 -0.764625E-02  0.168326E-02
  0.277203E+02 -0.813215E-02  0.167746E-02
  0.278003E+02 -0.848757E-02  0.168207E-02
  0.278803E+02 -0.870173E-02  0.168544E-02
  0.279603E+02 -0.875686E-02  0.169523E-02
  0.280403E+02 -0.863520E-02  0.173404E-02
  0.281203E+02 -0.831897E-02  0.174997E-02
  0.282003E+02 -0.779043E-02  0.175200E-02
  0.282803E+02 -0.703195E-02  0.176256E-02
  0.283603E+02 -0.604517E-02  0.176289E-02
  0.284403E+02 -0.486838E-02  0.177331E-02
  0.285203E+02 -0.354406E-02  0.177945E-02
  0.286003E+02 -0.211466E-02  0.178317E-02
  0.286803E+02 -0.622613E-03  0.180297E-02
  0.287603E+02  0.889609E-03  0.180424E-02
  0.288403E+02  0.237983E-02  0.181528E-02
  0.289203E+02  0.381699E-02  0.182306E-02
  0.290003E+02  0.518492E-02  0.182763E-02
  0.290803E+02  0.646845E-02  0.183184E-02
  0.291603E+02  0.765242E-02  0.184405E-02
  0.292403E+02  0.872170E-02  0.184644E-02
  0.293203E+02  0.966111E-02  0.185990E-02
  0.294003E+02  0.104555E-01  0.187482E-02
  0.294803E+02  0.110912E-01  0.187211E-02
  0.295603E+02  0.115562E-01  0.187592E-02
  0.296403E+02  0.118392E-01  0.187867E-02
  0.297203E+02  0.119286E-01  0.188695E-02
  0.298003E+02  0.118128E-01  0.189502E-02
  0.298803E+02  0.114803E-01  0.190050E-02
  0.299603E+02  0.109195E-01  0.190288E-02
  0.300403E+02  0.101294E-01  0.190142E-02
  0.301203E+02  0.914415E-02  0.190915E-02
  0.302003E+02  0.800510E-02  0.190859E-02
  0.302803E+02  0.675370E-02  0.190643E-02
  0.303603E+02  0.543139E-02  0.191532E-02
  0.304403E+02  0.407961E-02  0.190879E-02
  0.305203E+02  0.273979E-02  0.190837E-02
  0.306003E+02  0.145222E-02  0.191393E-02
  0.306803E+02  0.238825E-03  0.191891E-02
  0.307603E+02 -0.893570E-03  0.192235E-02
  0.308403E+02 -0.193857E-02  0.192918E-02
  0.309203E+02 -0.288977E-02  0.192740E-02
  0.310003E+02 -0.374078E-02  0.192544E-02
  0.310803E+02 -0.448520E-02  0.192777E-02
  0.311603E+02 -0.511664E-02  0.194290E-02
  0.312403E+02 -0.562889E-02  0.193411E-02
  0.313203E+02 -0.601689E-02  0.193169E-02
  0.314003E+02 -0.627600E-02  0.194618E-02
  0.314803E+02 -0.640158E-02  0.195104E-02
  0.315603E+02 -0.638900E-02  0.195489E-02
  0.316403E+02 -0.623361E-02  0.195146E-02
  0.317203E+02 -0.593079E-02  0.196164E-02
  0.318003E+02 -0.547589E-02  0.196614E-02
  0.318804E+02 -0.486767E-02  0.197382E-02
  0.319604E+02 -0.412223E-02  0.197353E-02
  0.320404E+02 -0.326119E-02  0.197625E-02
  0.321204E+02 -0.230609E-02  0.198338E-02
  0.322004E+02 -0.127856E-02  0.199602E-02
  0.322804E+02 -0.200179E-03  0.200242E-02
  0.323604E+02  0.907445E-03  0.200002E-02
  0.324404E+02  0.202272E-02  0.201441E-02
  0.325204E+02  0.312416E-02  0.201816E-02
  0.326004E+02  0.419135E-02  0.202141E-02
  0.326804E+02  0.520447E-02  0.203228E-02
  0.327604E+02  0.614369E-02  0.205263E-02
  0.328404E+02  0.698920E-02  0.204635E-02
  0.329204E+02  0.772118E-02  0.204522E-02
  0.330004E+02  0.831981E-02  0.205691E-02
  0.330804E+02  0.876526E-02  0.205063E-02
  0.331604E+02  0.903784E-02  0.206379E-02
  0.332404E+02  0.912944E-02  0.207540E-02
  0.333204E+02  0.905390E-02  0.207348E-02
  0.334004E+02  0.882748E-02  0.208101E-02
  0.334804E+02  0.846642E-02  0.209171E-02
  0.335604E+02  0.798698E-02  0.208130E-02
  0.336404E+02  0.740542E-02  0.208797E-02
  0.337204E+02  0.673799E-02  0.208249E-02
  0.338004E+02  0.600095E-02  0.209489E-02
  0.338804E+02  0.521044E-02  0.209573E-02
  0.339604E+02  0.438024E-02  0.210740E-02
  0.340404E+02  0.352192E-02  0.209450E-02
  0.341204E+02  0.264698E-02  0.208592E-02
  0.342004E+02  0.176688E-02  0.209611E-02
  0.342804E+02  0.893122E-03  0.211152E-02
  0.343604E+02  0.371757E-04  0.210948E-02
  0.344404E+02 -0.789472E-03  0.210602E-02
  0.345204E+02 -0.157534E-02  0.210225E-02
  0.346004E+02 -0.230897E-02  0.210352E-02
  0.346804E+02 -0.297952E-02  0.211928E-02
  0.347604E+02 -0.357676E-02  0.211463E-02
  0.348404E+02 -0.409049E-02  0.211770E-02
  0.349204E+02 -0.451054E-02  0.212912E-02
  0.350004E+02 -0.482669E-02  0.210803E-02
  0.350804E+02 -0.502877E-02  0.212710E-02
  0.351604E+02 -0.510656E-02  0.214383E-02
  0.352404E+02 -0.504989E-02  0.214128E-02
  0.353204E+02 -0.484857E-02  0.215360E-02
  0.354004E+02 -0.450027E-02  0.214195E-02
  0.354804E+02 -0.402279E-02  0.216333E-02
  0.355604E+02 -0.343712E-02  0.216903E-02
  0.356404E+02 -0.276423E-02  0.217429E-02
  0.357204E+02 -0.202511E-02  0.217371E-02
  0.358004E+02 -0.124074E-02  0.218607E-02
  0.358804E+02 -0.432116E-03  0.217235E-02
  0.359604E+02  0.379789E-03  0.220019E-02
  0.360404E+02  0.117399E-02  0.220366E-02
  0.361204E+02  0.192977E-02  0.220679E-02
  0.362004E+02  0.263331E-02  0.220927E-02
  0.362804E+02  0.327793E-02  0.221747E-02
  0.363605E+02  0.385729E-02  0.222434E-02
  0.364405E+02  0.436505E-02  0.222143E-02
  0.365205E+02  0.479488E-02  0.232343E-02
  0.366005E+02  0.514045E-02  0.232081E-02
  0.366805E+02  0.539541E-02  0.233852E-02
  0.367605E+02  0.555342E-02  0.234315E-02
  0.368405E+02  0.560816E-02  0.234385E-02
  0.369205E+02  0.555357E-02  0.234899E-02
  0.370005E+02  0.539111E-02  0.249231E-02
  0.370805E+02  0.513030E-02  0.249107E-02
  0.371605E+02  0.478109E-02  0.249491E-02
  0.372405E+02  0.435339E-02  0.251033E-02
  0.373205E+02  0.385714E-02  0.250563E-02
  0.374005E+02  0.330227E-02  0.250498E-02
  0.374805E+02  0.269870E-02  0.250780E-02
  0.375605E+02  0.205636E-02  0.251556E-02
  0.376405E+02  0.138518E-02  0.251878E-02
  0.377205E+02  0.695098E-03  0.251403E-02
  0.378005E+02 -0.340908E-05  0.251560E-02
  0.378805E+02 -0.698176E-03  0.253026E-02
  0.379605E+02 -0.137672E-02  0.252451E-02
  0.380405E+02 -0.202658E-02  0.253720E-02
  0.381205E+02 -0.263526E-02  0.253670E-02
  0.382005E+02 -0.319029E-02  0.254123E-02
  0.382805E+02 -0.367919E-02  0.255977E-02
  0.383605E+02 -0.408949E-02  0.255974E-02
  0.384405E+02 -0.440870E-02  0.256343E-02
  0.385205E+02 -0.462435E-02  0.255590E-02
  0.386005E+02 -0.472412E-02  0.255427E-02
  0.386805E+02 -0.470480E-02  0.256914E-02
  0.387605E+02 -0.457740E-02  0.256866E-02
  0.388405E+02 -0.435416E-02  0.256588E-02
  0.389205E+02 -0.404732E-02  0.257074E-02
  0.390005E+02 -0.366913E-02  0.257841E-02
  0.390805E+02 -0.323181E-02  0.258332E-02
  0.391605E+02 -0.274761E-02  0.260178E-02
  0.392405E+02 -0.222877E-02  0.261038E-02
  0.393205E+02 -0.168752E-02  0.262210E-02
  0.394005E+02 -0.113611E-02  0.262670E-02
  0.394805E+02 -0.586770E-03  0.263482E-02
  0.395605E+02 -0.498794E-04  0.262603E-02
  0.396405E+02  0.468859E-03  0.263584E-02
  0.397205E+02  0.964465E-03  0.265204E-02
  0.398005E+02  0.143196E-02  0.265899E-02
  0.398805E+02  0.186636E-02  0.266072E-02
  0.399605E+02  0.226269E-02  0.266808E-02
  0.400405E+02  0.261597E-02  0.267346E-02
  0.401205E+02  0.292122E-02  0.267887E-02
  0.402005E+02  0.317346E-02  0.267375E-02
  0.402805E+02  0.336771E-02  0.268665E-02
  0.403605E+02  0.349898E-02  0.269490E-02
  0.404405E+02  0.356257E-02  0.270062E-02
  0.405205E+02  0.355848E-02  0.270328E-02
  0.406005E+02  0.349096E-02  0.269819E-02
  0.406805E+02  0.336439E-02  0.270388E-02
  0.407606E+02  0.318313E-02  0.271893E-02
  0.408406E+02  0.295158E-02  0.272409E-02
  0.409206E+02  0.267410E-02  0.271730E-02
  0.410006E+02  0.235508E-02  0.273275E-02
  0.410806E+02  0.199889E-02  0.273431E-02
  0.411606E+02  0.160992E-02  0.272308E-02
  0.412406E+02  0.119253E-02  0.272574E-02
  0.413206E+02  0.751113E-03  0.273374E-02
  0.414006E+02  0.290122E-03  0.273376E-02
  0.414806E+02 -0.183888E-03  0.273847E-02
  0.415606E+02 -0.662108E-03  0.275608E-02
  0.416406E+02 -0.113562E-02  0.276303E-02
  0.417206E+02 -0.159551E-02  0.276017E-02
  0.418006E+02 -0.203285E-02  0.274940E-02
  0.418806E+02 -0.243872E-02  0.275913E-02
  0.419606E+02 -0.280422E-02  0.274986E-02
  0.420406E+02 -0.312041E-02  0.277405E-02
  0.421206E+02 -0.337839E-02  0.277289E-02
  0.422006E+02 -0.356922E-02  0.278179E-02
  0.422806E+02 -0.368400E-02  0.280258E-02
  0.423606E+02 -0.371380E-02  0.279359E-02
  0.424406E+02 -0.365219E-02  0.278627E-02
  0.425206E+02 -0.350595E-02  0.279591E-02
  0.426006E+02 -0.328623E-02  0.280808E-02
  0.426806E+02 -0.300420E-02  0.280740E-02
  0.427606E+02 -0.267104E-02  0.280706E-02
  0.428406E+02 -0.229790E-02  0.280976E-02
  0.429206E+02 -0.189595E-02  0.281697E-02
  0.430006E+02 -0.147635E-02  0.283108E-02
  0.430806E+02 -0.105028E-02  0.283363E-02
  0.431606E+02 -0.628892E-03  0.283864E-02
  0.432406E+02 -0.223356E-03  0.283821E-02
  0.433206E+02  0.155163E-03  0.288113E-02
  0.434006E+02  0.495498E-03  0.285750E-02
  0.434806E+02  0.787670E-03  0.286674E-02
  0.435606E+02  0.103014E-02  0.287234E-02
  0.436406E+02  0.122503E-02  0.288377E-02
  0.437206E+02  0.137449E-02  0.289118E-02
  0.438006E+02  0.148067E-02  0.289033E-02
  0.438806E+02  0.154570E-02  0.288650E-02
  0.439606E+02  0.157173E-02  0.289124E-02
  0.440406E+02  0.156090E-02  0.291526E-02
  0.441206E+02  0.151537E-02  0.291175E-02
  0.442006E+02  0.143726E-02  0.291390E-02
  0.442806E+02  0.132873E-02  0.291501E-02
  0.443606E+02  0.119191E-02  0.293577E-02
  0.444406E+02  0.102896E-02  0.292506E-02
  0.445206E+02  0.842013E-03  0.291961E-02
  0.446006E+02  0.633698E-03  0.291773E-02
  0.446806E+02  0.407851E-03  0.292159E-02
  0.447606E+02  0.168495E-03  0.293375E-02
  0.448406E+02 -0.803439E-04  0.292162E-02
  0.449206E+02 -0.334640E-03  0.293686E-02
  0.450006E+02 -0.590370E-03  0.294652E-02
  0.450807E+02 -0.843507E-03  0.294087E-02
  0.451607E+02 -0.109003E-02  0.296800E-02
  0.452407E+02 -0.132591E-02  0.295746E-02
  0.453207E+02 -0.154712E-02  0.295968E-02
  0.454007E+02 -0.174964E-02  0.297533E-02
  0.454807E+02 -0.192944E-02  0.298219E-02
  0.455607E+02 -0.208250E-02  0.297740E-02
  0.456407E+02 -0.220479E-02  0.298425E-02
  0.457207E+02 -0.229292E-02  0.297927E-02
  0.458007E+02 -0.234694E-02  0.300166E-02
  0.458807E+02 -0.236802E-02  0.299462E-02
  0.459607E+02 -0.235738E-02  0.299671E-02
  0.460407E+02 -0.231619E-02  0.301130E-02
  0.461207E+02 -0.224566E-02  0.301261E-02
  0.462007E+02 -0.214697E-02  0.302471E-02
  0.462807E+02 -0.202133E-02  0.302754E-02
  0.463607E+02 -0.186992E-02  0.301675E-02
  0.464407E+02 -0.169394E-02  0.302086E-02
  0.465207E+02 -0.149459E-02  0.303169E-02
  0.466007E+02 -0.127305E-02  0.304600E-02
  0.466807E+02 -0.103052E-02  0.306123E-02
  0.467607E+02 -0.768199E-03  0.306905E-02
  0.468407E+02 -0.487274E-03  0.307850E-02
  0.469207E+02 -0.189740E-03  0.306854E-02
  0.470007E+02  0.119227E-03  0.307995E-02
  0.470807E+02  0.433656E-03  0.308630E-02
  0.471607E+02  0.747581E-03  0.308264E-02
  0.472407E+02  0.105503E-02  0.308297E-02
  0.473207E+02  0.135004E-02  0.308844E-02
  0.474007E+02  0.162663E-02  0.310100E-02
  0.474807E+02  0.187884E-02  0.309989E-02
  0.475607E+02  0.210071E-02  0.311106E-02
  0.476407E+02  0.228625E-02  0.313069E-02
  0.477207E+02  0.242951E-02  0.312920E-02
  0.478007E+02  0.252451E-02  0.312509E-02
  0.478807E+02  0.256528E-02  0.312737E-02
  0.479607E+02  0.254586E-02  0.314424E-02
  0.480407E+02  0.246027E-02  0.314938E-02
  0.481207E+02  0.230276E-02  0.314937E-02
  0.482007E+02  0.207483E-02  0.317441E-02
  0.482807E+02  0.178714E-02  0.318024E-02
  0.483607E+02  0.145091E-02  0.317134E-02
  0.484407E+02  0.107734E-02  0.316316E-02
  0.485207E+02  0.677661E-03  0.315928E-02
  0.486007E+02  0.263091E-03  0.316424E-02
  0.486807E+02 -0.155153E-03  0.317319E-02
  0.487607E+02 -0.565851E-03  0.316854E-02
  0.488407E+02 -0.957785E-03  0.318315E-02
  0.489207E+02 -0.131974E-02  0.318845E-02
  0.490007E+02 -0.164049E-02  0.319394E-02
  0.490807E+02 -0.190882E-02  0.317861E-02
  0.491607E+02 -0.211351E-02  0.319487E-02
  0.492407E+02 -0.224335E-02  0.319563E-02
  0.493207E+02 -0.228710E-02  0.320196E-02
  0.494007E+02 -0.223357E-02  0.320873E-02
  0.494808E+02 -0.207152E-02  0.321373E-02
  0.495608E+02 -0.178974E-02  0.319028E-02
  0.496408E+02 -0.137701E-02  0.325174E-02
  0.497208E+02 -0.822111E-03  0.324186E-02
  0.498008E+02 -0.113823E-03  0.323415E-02
  0.498808E+02  0.759071E-03  0.324942E-02
  0.499608E+02  0.180779E-02  0.460838E+04