File: data-release/xrd_measurements/GeO2/T_r
 IOP Conf. Series 107(1990)193
 Fig 9 Top right
 r, T(r)
  0.000000E+00 -0.249991E-01
  0.100000E-01  0.748599E-01
  0.200000E-01  0.143358E+00
  0.300000E-01  0.199595E+00
  0.400000E-01  0.238569E+00
  0.500000E-01  0.256551E+00
  0.600000E-01  0.251374E+00
  0.700000E-01  0.222614E+00
  0.800000E-01  0.171643E+00
  0.900000E-01  0.101541E+00
  0.100000E+00  0.168677E-01
  0.110000E+00 -0.766920E-01
  0.120000E+00 -0.172790E+00
  0.130000E+00 -0.264941E+00
  0.140000E+00 -0.347073E+00
  0.150000E+00 -0.414034E+00
  0.160000E+00 -0.462031E+00
  0.170000E+00 -0.488920E+00
  0.180000E+00 -0.494339E+00
  0.190000E+00 -0.479663E+00
  0.200000E+00 -0.447780E+00
  0.210000E+00 -0.402718E+00
  0.220000E+00 -0.349175E+00
  0.230000E+00 -0.291993E+00
  0.240000E+00 -0.235657E+00
  0.250000E+00 -0.183871E+00
  0.260000E+00 -0.139247E+00
  0.270000E+00 -0.103172E+00
  0.280000E+00 -0.758193E-01
  0.290000E+00 -0.563220E-01
  0.300000E+00 -0.430646E-01
  0.310000E+00 -0.340400E-01
  0.320000E+00 -0.272190E-01
  0.330000E+00 -0.208825E-01
  0.340000E+00 -0.138626E-01
  0.350000E+00 -0.567398E-02
  0.360000E+00  0.348276E-02
  0.370000E+00  0.128331E-01
  0.380000E+00  0.212225E-01
  0.390000E+00  0.273616E-01
  0.400000E+00  0.300756E-01
  0.410000E+00  0.285150E-01
  0.420000E+00  0.222991E-01
  0.430000E+00  0.115714E-01
  0.440000E+00 -0.302775E-02
  0.450000E+00 -0.204711E-01
  0.460000E+00 -0.394973E-01
  0.470000E+00 -0.587906E-01
  0.480000E+00 -0.771428E-01
  0.490000E+00 -0.935816E-01
  0.500000E+00 -0.107449E+00
  0.510000E+00 -0.118413E+00
  0.520000E+00 -0.126437E+00
  0.530000E+00 -0.131700E+00
  0.540000E+00 -0.134519E+00
  0.550000E+00 -0.135252E+00
  0.560000E+00 -0.134238E+00
  0.570000E+00 -0.131758E+00
  0.580000E+00 -0.128029E+00
  0.590000E+00 -0.123226E+00
  0.600000E+00 -0.117506E+00
  0.610000E+00 -0.111042E+00
  0.620000E+00 -0.104038E+00
  0.630000E+00 -0.967246E-01
  0.640000E+00 -0.893311E-01
  0.650000E+00 -0.820497E-01
  0.660000E+00 -0.749792E-01
  0.670000E+00 -0.681050E-01
  0.680000E+00 -0.612768E-01
  0.690000E+00 -0.542366E-01
  0.700000E+00 -0.466661E-01
  0.710000E+00 -0.382731E-01
  0.720000E+00 -0.288779E-01
  0.730000E+00 -0.185012E-01
  0.740000E+00 -0.742084E-02
  0.750000E+00  0.381251E-02
  0.760000E+00  0.144118E-01
  0.770000E+00  0.234426E-01
  0.780000E+00  0.299503E-01
  0.790000E+00  0.331085E-01
  0.800000E+00  0.323651E-01
  0.810000E+00  0.275489E-01
  0.820000E+00  0.189343E-01
  0.830000E+00  0.722927E-02
  0.840000E+00 -0.650185E-02
  0.850000E+00 -0.209739E-01
  0.860000E+00 -0.348491E-01
  0.870000E+00 -0.469283E-01
  0.880000E+00 -0.563002E-01
  0.890000E+00 -0.624668E-01
  0.900000E+00 -0.653822E-01
  0.910000E+00 -0.654297E-01
  0.920000E+00 -0.633281E-01
  0.930000E+00 -0.599946E-01
  0.940000E+00 -0.563724E-01
  0.950000E+00 -0.532740E-01
  0.960000E+00 -0.512492E-01
  0.970000E+00 -0.505116E-01
  0.980000E+00 -0.509233E-01
  0.990000E+00 -0.520384E-01
  0.100000E+01 -0.532034E-01
  0.101000E+01 -0.536812E-01
  0.102000E+01 -0.527836E-01
  0.103000E+01 -0.499904E-01
  0.104000E+01 -0.450272E-01
  0.105000E+01 -0.379061E-01
  0.106000E+01 -0.289125E-01
  0.107000E+01 -0.185596E-01
  0.108000E+01 -0.750419E-02
  0.109000E+01  0.354058E-02
  0.110000E+01  0.138909E-01
  0.111000E+01  0.229666E-01
  0.112000E+01  0.303336E-01
  0.113000E+01  0.357305E-01
  0.114000E+01  0.390566E-01
  0.115000E+01  0.403551E-01
  0.116000E+01  0.397744E-01
  0.117000E+01  0.375378E-01
  0.118000E+01  0.339010E-01
  0.119000E+01  0.291226E-01
  0.120000E+01  0.234483E-01
  0.121000E+01  0.170852E-01
  0.122000E+01  0.101958E-01
  0.123000E+01  0.290072E-02
  0.124000E+01 -0.472799E-02
  0.125000E+01 -0.126496E-01
  0.126000E+01 -0.208310E-01
  0.127000E+01 -0.292328E-01
  0.128000E+01 -0.377672E-01
  0.129000E+01 -0.462793E-01
  0.130000E+01 -0.545204E-01
  0.131000E+01 -0.621539E-01
  0.132000E+01 -0.687678E-01
  0.133000E+01 -0.739208E-01
  0.134000E+01 -0.772052E-01
  0.135000E+01 -0.783138E-01
  0.136000E+01 -0.771187E-01
  0.137000E+01 -0.737092E-01
  0.138000E+01 -0.684082E-01
  0.139000E+01 -0.617425E-01
  0.140000E+01 -0.543574E-01
  0.141000E+01 -0.469095E-01
  0.142000E+01 -0.399289E-01
  0.143000E+01 -0.337114E-01
  0.144000E+01 -0.282367E-01
  0.145000E+01 -0.231636E-01
  0.146000E+01 -0.178964E-01
  0.147000E+01 -0.117288E-01
  0.148000E+01 -0.403705E-02
  0.149000E+01  0.553247E-02
  0.150000E+01  0.169123E-01
  0.151000E+01  0.295766E-01
  0.152000E+01  0.426511E-01
  0.153000E+01  0.551879E-01
  0.154000E+01  0.665968E-01
  0.155000E+01  0.771812E-01
  0.156000E+01  0.886863E-01
  0.157000E+01  0.104756E+00
  0.158000E+01  0.131179E+00
  0.159000E+01  0.175810E+00
  0.160000E+01  0.248120E+00
  0.161000E+01  0.358328E+00
  0.162000E+01  0.516199E+00
  0.163000E+01  0.729603E+00
  0.164000E+01  0.100302E+01
  0.165000E+01  0.133621E+01
  0.166000E+01  0.172321E+01
  0.167000E+01  0.215196E+01
  0.168000E+01  0.260458E+01
  0.169000E+01  0.305834E+01
  0.170000E+01  0.348739E+01
  0.171000E+01  0.386494E+01
  0.172000E+01  0.416576E+01
  0.173000E+01  0.436867E+01
  0.174000E+01  0.445870E+01
  0.175000E+01  0.442866E+01
  0.176000E+01  0.428001E+01
  0.177000E+01  0.402267E+01
  0.178000E+01  0.367411E+01
  0.179000E+01  0.325752E+01
  0.180000E+01  0.279959E+01
  0.181000E+01  0.232789E+01
  0.182000E+01  0.186835E+01
  0.183000E+01  0.144314E+01
  0.184000E+01  0.106902E+01
  0.185000E+01  0.756465E+00
  0.186000E+01  0.509543E+00
  0.187000E+01  0.326503E+00
  0.188000E+01  0.200888E+00
  0.189000E+01  0.123027E+00
  0.190000E+01  0.816499E-01
  0.191000E+01  0.653912E-01
  0.192000E+01  0.640219E-01
  0.193000E+01  0.693035E-01
  0.194000E+01  0.753946E-01
  0.195000E+01  0.788497E-01
  0.196000E+01  0.782986E-01
  0.197000E+01  0.739070E-01
  0.198000E+01  0.667589E-01
  0.199000E+01  0.582748E-01
  0.200000E+01  0.497457E-01
  0.201000E+01  0.420563E-01
  0.202000E+01  0.355769E-01
  0.203000E+01  0.302166E-01
  0.204000E+01  0.255791E-01
  0.205000E+01  0.211661E-01
  0.206000E+01  0.165634E-01
  0.207000E+01  0.115673E-01
  0.208000E+01  0.624835E-02
  0.209000E+01  0.916123E-03
  0.210000E+01 -0.396401E-02
  0.211000E+01 -0.787753E-02
  0.212000E+01 -0.103912E-01
  0.213000E+01 -0.112173E-01
  0.214000E+01 -0.102690E-01
  0.215000E+01 -0.764698E-02
  0.216000E+01 -0.359261E-02
  0.217000E+01  0.157893E-02
  0.218000E+01  0.753987E-02
  0.219000E+01  0.140078E-01
  0.220000E+01  0.207542E-01
  0.221000E+01  0.275970E-01
  0.222000E+01  0.343684E-01
  0.223000E+01  0.408667E-01
  0.224000E+01  0.468248E-01
  0.225000E+01  0.518935E-01
  0.226000E+01  0.556681E-01
  0.227000E+01  0.577281E-01
  0.228000E+01  0.577102E-01
  0.229000E+01  0.553945E-01
  0.230000E+01  0.507579E-01
  0.231000E+01  0.440131E-01
  0.232000E+01  0.356124E-01
  0.233000E+01  0.261838E-01
  0.234000E+01  0.164678E-01
  0.235000E+01  0.718820E-02
  0.236000E+01 -0.103879E-02
  0.237000E+01 -0.779849E-02
  0.238000E+01 -0.129322E-01
  0.239000E+01 -0.165290E-01
  0.240000E+01 -0.188867E-01
  0.241000E+01 -0.204247E-01
  0.242000E+01 -0.215712E-01
  0.243000E+01 -0.226635E-01
  0.244000E+01 -0.238489E-01
  0.245000E+01 -0.250466E-01
  0.246000E+01 -0.259438E-01
  0.247000E+01 -0.260350E-01
  0.248000E+01 -0.247254E-01
  0.249000E+01 -0.214097E-01
  0.250000E+01 -0.155945E-01
  0.251000E+01 -0.696868E-02
  0.252000E+01  0.456220E-02
  0.253000E+01  0.188762E-01
  0.254000E+01  0.356948E-01
  0.255000E+01  0.546708E-01
  0.256000E+01  0.755000E-01
  0.257000E+01  0.980192E-01
  0.258000E+01  0.122296E+00
  0.259000E+01  0.148655E+00
  0.260000E+01  0.177677E+00
  0.261000E+01  0.210143E+00
  0.262000E+01  0.246928E+00
  0.263000E+01  0.288885E+00
  0.264000E+01  0.336717E+00
  0.265000E+01  0.390868E+00
  0.266000E+01  0.451443E+00
  0.267000E+01  0.518176E+00
  0.268000E+01  0.590436E+00
  0.269000E+01  0.667278E+00
  0.270000E+01  0.747516E+00
  0.271000E+01  0.829817E+00
  0.272000E+01  0.912791E+00
  0.273000E+01  0.995066E+00
  0.274000E+01  0.107534E+01
  0.275000E+01  0.115239E+01
  0.276000E+01  0.122512E+01
  0.277000E+01  0.129250E+01
  0.278000E+01  0.135356E+01
  0.279000E+01  0.140739E+01
  0.280000E+01  0.145314E+01
  0.281000E+01  0.149004E+01
  0.282000E+01  0.151742E+01
  0.283000E+01  0.153476E+01
  0.284000E+01  0.154178E+01
  0.285000E+01  0.153847E+01
  0.286000E+01  0.152512E+01
  0.287000E+01  0.150238E+01
  0.288000E+01  0.147117E+01
  0.289000E+01  0.143274E+01
  0.290000E+01  0.138854E+01
  0.291000E+01  0.134018E+01
  0.292000E+01  0.128933E+01
  0.293000E+01  0.123762E+01
  0.294000E+01  0.118663E+01
  0.295000E+01  0.113776E+01
  0.296000E+01  0.109225E+01
  0.297000E+01  0.105114E+01
  0.298000E+01  0.101524E+01
  0.299000E+01  0.985201E+00
  0.300000E+01  0.961474E+00
  0.301000E+01  0.944335E+00
  0.302000E+01  0.933893E+00
  0.303000E+01  0.930094E+00
  0.304000E+01  0.932710E+00
  0.305000E+01  0.941342E+00
  0.306000E+01  0.955416E+00
  0.307000E+01  0.974194E+00
  0.308000E+01  0.996790E+00
  0.309000E+01  0.102220E+01
  0.310000E+01  0.104934E+01
  0.311000E+01  0.107711E+01
  0.312000E+01  0.110441E+01
  0.313000E+01  0.113022E+01
  0.314000E+01  0.115363E+01
  0.315000E+01  0.117386E+01
  0.316000E+01  0.119028E+01
  0.317000E+01  0.120242E+01
  0.318000E+01  0.120996E+01
  0.319000E+01  0.121268E+01
  0.320000E+01  0.121052E+01
  0.321000E+01  0.120349E+01
  0.322000E+01  0.119170E+01
  0.323000E+01  0.117537E+01
  0.324000E+01  0.115483E+01
  0.325000E+01  0.113050E+01
  0.326000E+01  0.110294E+01
  0.327000E+01  0.107284E+01
  0.328000E+01  0.104098E+01
  0.329000E+01  0.100824E+01
  0.330000E+01  0.975539E+00
  0.331000E+01  0.943784E+00
  0.332000E+01  0.913824E+00
  0.333000E+01  0.886382E+00
  0.334000E+01  0.862010E+00
  0.335000E+01  0.841061E+00
  0.336000E+01  0.823670E+00
  0.337000E+01  0.809768E+00
  0.338000E+01  0.799108E+00
  0.339000E+01  0.791321E+00
  0.340000E+01  0.785957E+00
  0.341000E+01  0.782561E+00
  0.342000E+01  0.780711E+00
  0.343000E+01  0.780057E+00
  0.344000E+01  0.780352E+00
  0.345000E+01  0.781443E+00
  0.346000E+01  0.783264E+00
  0.347000E+01  0.785812E+00
  0.348000E+01  0.789110E+00
  0.349000E+01  0.793181E+00
  0.350000E+01  0.798029E+00
  0.351000E+01  0.803613E+00
  0.352000E+01  0.809855E+00
  0.353000E+01  0.816646E+00
  0.354000E+01  0.823855E+00
  0.355000E+01  0.831356E+00
  0.356000E+01  0.839041E+00
  0.357000E+01  0.846829E+00
  0.358000E+01  0.854677E+00
  0.359000E+01  0.862570E+00
  0.360000E+01  0.870509E+00
  0.361000E+01  0.878503E+00
  0.362000E+01  0.886549E+00
  0.363000E+01  0.894622E+00
  0.364000E+01  0.902674E+00
  0.365000E+01  0.910633E+00
  0.366000E+01  0.918422E+00
  0.367000E+01  0.925965E+00
  0.368000E+01  0.933219E+00
  0.369000E+01  0.940178E+00
  0.370000E+01  0.946890E+00
  0.371000E+01  0.953457E+00
  0.372000E+01  0.960023E+00
  0.373000E+01  0.966754E+00
  0.374000E+01  0.973815E+00
  0.375000E+01  0.981336E+00
  0.376000E+01  0.989388E+00
  0.377000E+01  0.997955E+00
  0.378000E+01  0.100693E+01
  0.379000E+01  0.101611E+01
  0.380000E+01  0.102522E+01
  0.381000E+01  0.103392E+01
  0.382000E+01  0.104186E+01
  0.383000E+01  0.104871E+01
  0.384000E+01  0.105421E+01
  0.385000E+01  0.105818E+01
  0.386000E+01  0.106056E+01
  0.387000E+01  0.106141E+01
  0.388000E+01  0.106093E+01
  0.389000E+01  0.105941E+01
  0.390000E+01  0.105723E+01
  0.391000E+01  0.105479E+01
  0.392000E+01  0.105253E+01
  0.393000E+01  0.105084E+01
  0.394000E+01  0.105005E+01
  0.395000E+01  0.105043E+01
  0.396000E+01  0.105214E+01
  0.397000E+01  0.105524E+01
  0.398000E+01  0.105975E+01
  0.399000E+01  0.106557E+01
  0.400000E+01  0.107261E+01
  0.401000E+01  0.108073E+01
  0.402000E+01  0.108982E+01
  0.403000E+01  0.109979E+01
  0.404000E+01  0.111057E+01
  0.405000E+01  0.112213E+01
  0.406000E+01  0.113448E+01
  0.407000E+01  0.114762E+01
  0.408000E+01  0.116157E+01
  0.409000E+01  0.117634E+01
  0.410000E+01  0.119187E+01
  0.411000E+01  0.120812E+01
  0.412000E+01  0.122497E+01
  0.413000E+01  0.124228E+01
  0.414000E+01  0.125993E+01
  0.415000E+01  0.127776E+01
  0.416000E+01  0.129568E+01
  0.417000E+01  0.131362E+01
  0.418000E+01  0.133160E+01
  0.419000E+01  0.134968E+01
  0.420000E+01  0.136799E+01
  0.421000E+01  0.138673E+01
  0.422000E+01  0.140609E+01
  0.423000E+01  0.142628E+01
  0.424000E+01  0.144746E+01
  0.425000E+01  0.146975E+01
  0.426000E+01  0.149317E+01
  0.427000E+01  0.151768E+01
  0.428000E+01  0.154312E+01
  0.429000E+01  0.156924E+01
  0.430000E+01  0.159576E+01
  0.431000E+01  0.162232E+01
  0.432000E+01  0.164856E+01
  0.433000E+01  0.167410E+01
  0.434000E+01  0.169862E+01
  0.435000E+01  0.172180E+01
  0.436000E+01  0.174338E+01
  0.437000E+01  0.176313E+01
  0.438000E+01  0.178086E+01
  0.439000E+01  0.179640E+01
  0.440000E+01  0.180961E+01
  0.441000E+01  0.182032E+01
  0.442000E+01  0.182837E+01
  0.443000E+01  0.183362E+01
  0.444000E+01  0.183588E+01
  0.445000E+01  0.183501E+01
  0.446000E+01  0.183088E+01
  0.447000E+01  0.182337E+01
  0.448000E+01  0.181245E+01
  0.449000E+01  0.179813E+01
  0.450000E+01  0.178050E+01
  0.451000E+01  0.175975E+01
  0.452000E+01  0.173614E+01
  0.453000E+01  0.171002E+01
  0.454000E+01  0.168180E+01
  0.455000E+01  0.165196E+01
  0.456000E+01  0.162100E+01
  0.457000E+01  0.158947E+01
  0.458000E+01  0.155789E+01
  0.459000E+01  0.152678E+01
  0.460000E+01  0.149661E+01
  0.461000E+01  0.146782E+01
  0.462000E+01  0.144076E+01
  0.463000E+01  0.141576E+01
  0.464000E+01  0.139305E+01
  0.465000E+01  0.137283E+01
  0.466000E+01  0.135523E+01
  0.467000E+01  0.134033E+01
  0.468000E+01  0.132818E+01
  0.469000E+01  0.131878E+01
  0.470000E+01  0.131209E+01
  0.471000E+01  0.130803E+01
  0.472000E+01  0.130650E+01
  0.473000E+01  0.130733E+01
  0.474000E+01  0.131034E+01
  0.475000E+01  0.131529E+01
  0.476000E+01  0.132193E+01
  0.477000E+01  0.132999E+01
  0.478000E+01  0.133918E+01
  0.479000E+01  0.134924E+01
  0.480000E+01  0.135990E+01
  0.481000E+01  0.137096E+01
  0.482000E+01  0.138226E+01
  0.483000E+01  0.139368E+01
  0.484000E+01  0.140518E+01
  0.485000E+01  0.141675E+01
  0.486000E+01  0.142843E+01
  0.487000E+01  0.144029E+01
  0.488000E+01  0.145241E+01
  0.489000E+01  0.146486E+01
  0.490000E+01  0.147768E+01
  0.491000E+01  0.149090E+01
  0.492000E+01  0.150448E+01
  0.493000E+01  0.151836E+01
  0.494000E+01  0.153244E+01
  0.495000E+01  0.154658E+01
  0.496000E+01  0.156064E+01
  0.497000E+01  0.157444E+01
  0.498000E+01  0.158784E+01
  0.499000E+01  0.160072E+01
  0.500000E+01  0.161297E+01
  0.501000E+01  0.162453E+01
  0.502000E+01  0.163538E+01
  0.503000E+01  0.164555E+01
  0.504000E+01  0.165509E+01
  0.505000E+01  0.166408E+01
  0.506000E+01  0.167263E+01
  0.507000E+01  0.168084E+01
  0.508000E+01  0.168884E+01
  0.509000E+01  0.169671E+01
  0.510000E+01  0.170453E+01
  0.511000E+01  0.171236E+01
  0.512000E+01  0.172021E+01
  0.513000E+01  0.172808E+01
  0.514000E+01  0.173594E+01
  0.515000E+01  0.174375E+01
  0.516000E+01  0.175145E+01
  0.517000E+01  0.175898E+01
  0.518000E+01  0.176630E+01
  0.519000E+01  0.177338E+01
  0.520000E+01  0.178020E+01
  0.521000E+01  0.178676E+01
  0.522000E+01  0.179309E+01
  0.523000E+01  0.179921E+01
  0.524000E+01  0.180518E+01
  0.525000E+01  0.181102E+01
  0.526000E+01  0.181677E+01
  0.527000E+01  0.182244E+01
  0.528000E+01  0.182804E+01
  0.529000E+01  0.183355E+01
  0.530000E+01  0.183895E+01
  0.531000E+01  0.184419E+01
  0.532000E+01  0.184923E+01
  0.533000E+01  0.185403E+01
  0.534000E+01  0.185853E+01
  0.535000E+01  0.186271E+01
  0.536000E+01  0.186654E+01
  0.537000E+01  0.186999E+01
  0.538000E+01  0.187304E+01
  0.539000E+01  0.187568E+01
  0.540000E+01  0.187788E+01
  0.541000E+01  0.187962E+01
  0.542000E+01  0.188084E+01
  0.543000E+01  0.188151E+01
  0.544000E+01  0.188156E+01
  0.545000E+01  0.188093E+01
  0.546000E+01  0.187955E+01
  0.547000E+01  0.187738E+01
  0.548000E+01  0.187437E+01
  0.549000E+01  0.187049E+01
  0.550000E+01  0.186576E+01
  0.551000E+01  0.186020E+01
  0.552000E+01  0.185388E+01
  0.553000E+01  0.184692E+01
  0.554000E+01  0.183944E+01
  0.555000E+01  0.183162E+01
  0.556000E+01  0.182363E+01
  0.557000E+01  0.181569E+01
  0.558000E+01  0.180799E+01
  0.559000E+01  0.180071E+01
  0.560000E+01  0.179403E+01
  0.561000E+01  0.178808E+01
  0.562000E+01  0.178294E+01
  0.563000E+01  0.177867E+01
  0.564000E+01  0.177525E+01
  0.565000E+01  0.177262E+01
  0.566000E+01  0.177070E+01
  0.567000E+01  0.176934E+01
  0.568000E+01  0.176839E+01
  0.569000E+01  0.176768E+01
  0.570000E+01  0.176706E+01
  0.571000E+01  0.176637E+01
  0.572000E+01  0.176550E+01
  0.573000E+01  0.176438E+01
  0.574000E+01  0.176296E+01
  0.575000E+01  0.176124E+01
  0.576000E+01  0.175928E+01
  0.577000E+01  0.175714E+01
  0.578000E+01  0.175494E+01
  0.579000E+01  0.175281E+01
  0.580000E+01  0.175088E+01
  0.581000E+01  0.174929E+01
  0.582000E+01  0.174818E+01
  0.583000E+01  0.174766E+01
  0.584000E+01  0.174784E+01
  0.585000E+01  0.174878E+01
  0.586000E+01  0.175055E+01
  0.587000E+01  0.175316E+01
  0.588000E+01  0.175661E+01
  0.589000E+01  0.176087E+01
  0.590000E+01  0.176589E+01
  0.591000E+01  0.177161E+01
  0.592000E+01  0.177793E+01
  0.593000E+01  0.178475E+01
  0.594000E+01  0.179195E+01
  0.595000E+01  0.179942E+01
  0.596000E+01  0.180703E+01
  0.597000E+01  0.181466E+01
  0.598000E+01  0.182219E+01
  0.599000E+01  0.182950E+01
  0.600000E+01  0.183650E+01
  0.601000E+01  0.184309E+01
  0.602000E+01  0.184921E+01
  0.603000E+01  0.185478E+01
  0.604000E+01  0.185979E+01
  0.605000E+01  0.186422E+01
  0.606000E+01  0.186807E+01
  0.607000E+01  0.187138E+01
  0.608000E+01  0.187421E+01
  0.609000E+01  0.187661E+01
  0.610000E+01  0.187867E+01
  0.611000E+01  0.188048E+01
  0.612000E+01  0.188214E+01
  0.613000E+01  0.188373E+01
  0.614000E+01  0.188534E+01
  0.615000E+01  0.188705E+01
  0.616000E+01  0.188893E+01
  0.617000E+01  0.189101E+01
  0.618000E+01  0.189333E+01
  0.619000E+01  0.189590E+01
  0.620000E+01  0.189871E+01
  0.621000E+01  0.190174E+01
  0.622000E+01  0.190494E+01
  0.623000E+01  0.190826E+01
  0.624000E+01  0.191165E+01
  0.625000E+01  0.191505E+01
  0.626000E+01  0.191840E+01
  0.627000E+01  0.192165E+01
  0.628000E+01  0.192477E+01
  0.629000E+01  0.192771E+01
  0.630000E+01  0.193047E+01
  0.631000E+01  0.193304E+01
  0.632000E+01  0.193544E+01
  0.633000E+01  0.193767E+01
  0.634000E+01  0.193976E+01
  0.635000E+01  0.194175E+01
  0.636000E+01  0.194364E+01
  0.637000E+01  0.194547E+01
  0.638000E+01  0.194726E+01
  0.639000E+01  0.194901E+01
  0.640000E+01  0.195076E+01
  0.641000E+01  0.195251E+01
  0.642000E+01  0.195430E+01
  0.643000E+01  0.195614E+01
  0.644000E+01  0.195807E+01
  0.645000E+01  0.196014E+01
  0.646000E+01  0.196240E+01
  0.647000E+01  0.196489E+01
  0.648000E+01  0.196767E+01
  0.649000E+01  0.197079E+01
  0.650000E+01  0.197427E+01
  0.651000E+01  0.197813E+01
  0.652000E+01  0.198237E+01
  0.653000E+01  0.198696E+01
  0.654000E+01  0.199186E+01
  0.655000E+01  0.199700E+01
  0.656000E+01  0.200230E+01
  0.657000E+01  0.200766E+01
  0.658000E+01  0.201299E+01
  0.659000E+01  0.201817E+01
  0.660000E+01  0.202309E+01
  0.661000E+01  0.202767E+01
  0.662000E+01  0.203179E+01
  0.663000E+01  0.203539E+01
  0.664000E+01  0.203838E+01
  0.665000E+01  0.204072E+01
  0.666000E+01  0.204239E+01
  0.667000E+01  0.204338E+01
  0.668000E+01  0.204373E+01
  0.669000E+01  0.204349E+01
  0.670000E+01  0.204274E+01
  0.671000E+01  0.204161E+01
  0.672000E+01  0.204022E+01
  0.673000E+01  0.203872E+01
  0.674000E+01  0.203726E+01
  0.675000E+01  0.203597E+01
  0.676000E+01  0.203499E+01
  0.677000E+01  0.203443E+01
  0.678000E+01  0.203435E+01
  0.679000E+01  0.203481E+01
  0.680000E+01  0.203582E+01
  0.681000E+01  0.203737E+01
  0.682000E+01  0.203942E+01
  0.683000E+01  0.204193E+01
  0.684000E+01  0.204484E+01
  0.685000E+01  0.204806E+01
  0.686000E+01  0.205153E+01
  0.687000E+01  0.205519E+01
  0.688000E+01  0.205897E+01
  0.689000E+01  0.206280E+01
  0.690000E+01  0.206663E+01
  0.691000E+01  0.207041E+01
  0.692000E+01  0.207406E+01
  0.693000E+01  0.207756E+01
  0.694000E+01  0.208084E+01
  0.695000E+01  0.208387E+01
  0.696000E+01  0.208661E+01
  0.697000E+01  0.208904E+01
  0.698000E+01  0.209115E+01
  0.699000E+01  0.209296E+01
  0.700000E+01  0.209448E+01
  0.701000E+01  0.209574E+01
  0.702000E+01  0.209680E+01
  0.703000E+01  0.209771E+01
  0.704000E+01  0.209852E+01
  0.705000E+01  0.209930E+01
  0.706000E+01  0.210010E+01
  0.707000E+01  0.210099E+01
  0.708000E+01  0.210200E+01
  0.709000E+01  0.210319E+01
  0.710000E+01  0.210459E+01
  0.711000E+01  0.210623E+01
  0.712000E+01  0.210815E+01
  0.713000E+01  0.211038E+01
  0.714000E+01  0.211292E+01
  0.715000E+01  0.211580E+01
  0.716000E+01  0.211902E+01
  0.717000E+01  0.212258E+01
  0.718000E+01  0.212647E+01
  0.719000E+01  0.213066E+01
  0.720000E+01  0.213513E+01
  0.721000E+01  0.213983E+01
  0.722000E+01  0.214472E+01
  0.723000E+01  0.214974E+01
  0.724000E+01  0.215485E+01
  0.725000E+01  0.216000E+01
  0.726000E+01  0.216514E+01
  0.727000E+01  0.217026E+01
  0.728000E+01  0.217532E+01
  0.729000E+01  0.218033E+01
  0.730000E+01  0.218529E+01
  0.731000E+01  0.219020E+01
  0.732000E+01  0.219510E+01
  0.733000E+01  0.220000E+01
  0.734000E+01  0.220495E+01
  0.735000E+01  0.220996E+01
  0.736000E+01  0.221505E+01
  0.737000E+01  0.222025E+01
  0.738000E+01  0.222557E+01
  0.739000E+01  0.223101E+01
  0.740000E+01  0.223657E+01
  0.741000E+01  0.224225E+01
  0.742000E+01  0.224804E+01
  0.743000E+01  0.225395E+01
  0.744000E+01  0.225997E+01
  0.745000E+01  0.226611E+01
  0.746000E+01  0.227236E+01
  0.747000E+01  0.227874E+01
  0.748000E+01  0.228525E+01
  0.749000E+01  0.229191E+01
  0.750000E+01  0.229872E+01
  0.751000E+01  0.230569E+01
  0.752000E+01  0.231282E+01
  0.753000E+01  0.232010E+01
  0.754000E+01  0.232751E+01
  0.755000E+01  0.233504E+01
  0.756000E+01  0.234265E+01
  0.757000E+01  0.235030E+01
  0.758000E+01  0.235794E+01
  0.759000E+01  0.236554E+01
  0.760000E+01  0.237304E+01
  0.761000E+01  0.238038E+01
  0.762000E+01  0.238752E+01
  0.763000E+01  0.239440E+01
  0.764000E+01  0.240098E+01
  0.765000E+01  0.240723E+01
  0.766000E+01  0.241309E+01
  0.767000E+01  0.241856E+01
  0.768000E+01  0.242360E+01
  0.769000E+01  0.242821E+01
  0.770000E+01  0.243238E+01
  0.771000E+01  0.243613E+01
  0.772000E+01  0.243947E+01
  0.773000E+01  0.244243E+01
  0.774000E+01  0.244503E+01
  0.775000E+01  0.244733E+01
  0.776000E+01  0.244935E+01
  0.777000E+01  0.245116E+01
  0.778000E+01  0.245278E+01
  0.779000E+01  0.245428E+01
  0.780000E+01  0.245570E+01
  0.781000E+01  0.245708E+01
  0.782000E+01  0.245845E+01
  0.783000E+01  0.245986E+01
  0.784000E+01  0.246131E+01
  0.785000E+01  0.246283E+01
  0.786000E+01  0.246443E+01
  0.787000E+01  0.246610E+01
  0.788000E+01  0.246783E+01
  0.789000E+01  0.246962E+01
  0.790000E+01  0.247144E+01
  0.791000E+01  0.247327E+01
  0.792000E+01  0.247510E+01
  0.793000E+01  0.247690E+01
  0.794000E+01  0.247867E+01
  0.795000E+01  0.248039E+01
  0.796000E+01  0.248207E+01
  0.797000E+01  0.248372E+01
  0.798000E+01  0.248534E+01
  0.799000E+01  0.248694E+01
  0.800000E+01  0.248853E+01
  0.801000E+01  0.249013E+01
  0.802000E+01  0.249173E+01
  0.803000E+01  0.249334E+01
  0.804000E+01  0.249496E+01
  0.805000E+01  0.249658E+01
  0.806000E+01  0.249819E+01
  0.807000E+01  0.249980E+01
  0.808000E+01  0.250139E+01
  0.809000E+01  0.250298E+01
  0.810000E+01  0.250458E+01
  0.811000E+01  0.250620E+01
  0.812000E+01  0.250786E+01
  0.813000E+01  0.250959E+01
  0.814000E+01  0.251139E+01
  0.815000E+01  0.251331E+01
  0.816000E+01  0.251534E+01
  0.817000E+01  0.251749E+01
  0.818000E+01  0.251976E+01
  0.819000E+01  0.252214E+01
  0.820000E+01  0.252460E+01
  0.821000E+01  0.252713E+01
  0.822000E+01  0.252970E+01
  0.823000E+01  0.253229E+01
  0.824000E+01  0.253487E+01
  0.825000E+01  0.253741E+01
  0.826000E+01  0.253992E+01
  0.827000E+01  0.254239E+01
  0.828000E+01  0.254480E+01
  0.829000E+01  0.254719E+01
  0.830000E+01  0.254954E+01
  0.831000E+01  0.255189E+01
  0.832000E+01  0.255425E+01
  0.833000E+01  0.255664E+01
  0.834000E+01  0.255909E+01
  0.835000E+01  0.256162E+01
  0.836000E+01  0.256425E+01
  0.837000E+01  0.256700E+01
  0.838000E+01  0.256990E+01
  0.839000E+01  0.257295E+01
  0.840000E+01  0.257619E+01
  0.841000E+01  0.257963E+01
  0.842000E+01  0.258327E+01
  0.843000E+01  0.258712E+01
  0.844000E+01  0.259119E+01
  0.845000E+01  0.259547E+01
  0.846000E+01  0.259996E+01
  0.847000E+01  0.260464E+01
  0.848000E+01  0.260950E+01
  0.849000E+01  0.261450E+01
  0.850000E+01  0.261963E+01
  0.851000E+01  0.262484E+01
  0.852000E+01  0.263011E+01
  0.853000E+01  0.263539E+01
  0.854000E+01  0.264066E+01
  0.855000E+01  0.264588E+01
  0.856000E+01  0.265103E+01
  0.857000E+01  0.265607E+01
  0.858000E+01  0.266100E+01
  0.859000E+01  0.266580E+01
  0.860000E+01  0.267049E+01
  0.861000E+01  0.267507E+01
  0.862000E+01  0.267955E+01
  0.863000E+01  0.268396E+01
  0.864000E+01  0.268833E+01
  0.865000E+01  0.269267E+01
  0.866000E+01  0.269701E+01
  0.867000E+01  0.270138E+01
  0.868000E+01  0.270579E+01
  0.869000E+01  0.271025E+01
  0.870000E+01  0.271476E+01
  0.871000E+01  0.271934E+01
  0.872000E+01  0.272398E+01
  0.873000E+01  0.272868E+01
  0.874000E+01  0.273341E+01
  0.875000E+01  0.273819E+01
  0.876000E+01  0.274299E+01
  0.877000E+01  0.274781E+01
  0.878000E+01  0.275264E+01
  0.879000E+01  0.275747E+01
  0.880000E+01  0.276230E+01
  0.881000E+01  0.276712E+01
  0.882000E+01  0.277194E+01
  0.883000E+01  0.277675E+01
  0.884000E+01  0.278155E+01
  0.885000E+01  0.278634E+01
  0.886000E+01  0.279112E+01
  0.887000E+01  0.279587E+01
  0.888000E+01  0.280058E+01
  0.889000E+01  0.280525E+01
  0.890000E+01  0.280984E+01
  0.891000E+01  0.281435E+01
  0.892000E+01  0.281875E+01
  0.893000E+01  0.282301E+01
  0.894000E+01  0.282711E+01
  0.895000E+01  0.283104E+01
  0.896000E+01  0.283477E+01
  0.897000E+01  0.283831E+01
  0.898000E+01  0.284165E+01
  0.899000E+01  0.284478E+01
  0.900000E+01  0.284771E+01
  0.901000E+01  0.285045E+01
  0.902000E+01  0.285300E+01
  0.903000E+01  0.285537E+01
  0.904000E+01  0.285758E+01
  0.905000E+01  0.285962E+01
  0.906000E+01  0.286150E+01
  0.907000E+01  0.286324E+01
  0.908000E+01  0.286485E+01
  0.909000E+01  0.286632E+01
  0.910000E+01  0.286769E+01
  0.911000E+01  0.286898E+01
  0.912000E+01  0.287020E+01
  0.913000E+01  0.287139E+01
  0.914000E+01  0.287259E+01
  0.915000E+01  0.287382E+01
  0.916000E+01  0.287513E+01
  0.917000E+01  0.287655E+01
  0.918000E+01  0.287810E+01
  0.919000E+01  0.287983E+01
  0.920000E+01  0.288174E+01
  0.921000E+01  0.288385E+01
  0.922000E+01  0.288619E+01
  0.923000E+01  0.288873E+01
  0.924000E+01  0.289150E+01
  0.925000E+01  0.289448E+01
  0.926000E+01  0.289765E+01
  0.927000E+01  0.290101E+01
  0.928000E+01  0.290454E+01
  0.929000E+01  0.290822E+01
  0.930000E+01  0.291201E+01
  0.931000E+01  0.291590E+01
  0.932000E+01  0.291987E+01
  0.933000E+01  0.292386E+01
  0.934000E+01  0.292786E+01
  0.935000E+01  0.293182E+01
  0.936000E+01  0.293572E+01
  0.937000E+01  0.293951E+01
  0.938000E+01  0.294315E+01
  0.939000E+01  0.294661E+01
  0.940000E+01  0.294986E+01
  0.941000E+01  0.295286E+01
  0.942000E+01  0.295559E+01
  0.943000E+01  0.295803E+01
  0.944000E+01  0.296015E+01
  0.945000E+01  0.296196E+01
  0.946000E+01  0.296345E+01
  0.947000E+01  0.296464E+01
  0.948000E+01  0.296554E+01
  0.949000E+01  0.296619E+01
  0.950000E+01  0.296662E+01
  0.951000E+01  0.296686E+01
  0.952000E+01  0.296697E+01
  0.953000E+01  0.296701E+01
  0.954000E+01  0.296701E+01
  0.955000E+01  0.296704E+01
  0.956000E+01  0.296715E+01
  0.957000E+01  0.296738E+01
  0.958000E+01  0.296778E+01
  0.959000E+01  0.296839E+01
  0.960000E+01  0.296925E+01
  0.961000E+01  0.297039E+01
  0.962000E+01  0.297182E+01
  0.963000E+01  0.297355E+01
  0.964000E+01  0.297560E+01
  0.965000E+01  0.297797E+01
  0.966000E+01  0.298063E+01
  0.967000E+01  0.298359E+01
  0.968000E+01  0.298681E+01
  0.969000E+01  0.299028E+01
  0.970000E+01  0.299398E+01
  0.971000E+01  0.299786E+01
  0.972000E+01  0.300192E+01
  0.973000E+01  0.300611E+01
  0.974000E+01  0.301043E+01
  0.975000E+01  0.301486E+01
  0.976000E+01  0.301936E+01
  0.977000E+01  0.302392E+01
  0.978000E+01  0.302854E+01
  0.979000E+01  0.303319E+01
  0.980000E+01  0.303785E+01
  0.981000E+01  0.304252E+01
  0.982000E+01  0.304716E+01
  0.983000E+01  0.305178E+01
  0.984000E+01  0.305635E+01
  0.985000E+01  0.306086E+01
  0.986000E+01  0.306530E+01
  0.987000E+01  0.306967E+01
  0.988000E+01  0.307397E+01
  0.989000E+01  0.307818E+01
  0.990000E+01  0.308233E+01
  0.991000E+01  0.308641E+01
  0.992000E+01  0.309042E+01
  0.993000E+01  0.309437E+01
  0.994000E+01  0.309828E+01
  0.995000E+01  0.310213E+01
  0.996000E+01  0.310593E+01
  0.997000E+01  0.310968E+01
  0.998000E+01  0.311337E+01
  0.999000E+01  0.311699E+01
  0.100000E+02  0.312054E+01