File: data/xrd_measurements/Li3PS4_gamma/F_of_Q.csv
,Q,F,dF
0,0.01,-0.926275,1e-7
2,0.03,-0.930096,1e-7
4,0.05,-0.937129,1e-7
6,0.07,-0.946263,1e-7
8,0.09,-0.956086,1e-7
10,0.11,-0.965128,1e-7
12,0.13,-0.972115,1e-7
14,0.15,-0.976175,1e-7
16,0.17,-0.976966,1e-7
18,0.19,-0.974698,1e-7
20,0.21,-0.970059,1e-7
22,0.23,-0.96405,0.0001
24,0.25,-0.957772,0.0001
26,0.27,-0.952212,0.0001
28,0.29,-0.948064,0.0001
30,0.31,-0.945619,0.0001
32,0.33,-0.944745,0.0001
34,0.35,-0.94496,0.0001
36,0.37,-0.945571,0.0001
38,0.39,-0.945847,0.0001
40,0.41,-0.945196,0.0001
42,0.43,-0.943299,0.0001
44,0.45,-0.940175,0.0001
46,0.47,-0.936165,0.0001
48,0.49,-0.931848,0.0001
50,0.51,-0.927891,0.0001
52,0.53,-0.924896,0.0001
54,0.55,-0.923242,0.0001
56,0.57,-0.92299,0.0001
58,0.59,-0.923857,0.0001
60,0.61,-0.925256,0.0001
62,0.63,-0.926415,0.0001
64,0.65,-0.926528,0.0001
66,0.67,-0.924918,0.0001
68,0.69,-0.921174,0.0001
70,0.71,-0.915225,0.0001
72,0.73,-0.907349,0.0001
74,0.75,-0.898101,0.0001
76,0.77,-0.888187,0.0001
78,0.79,-0.878305,0.0001
80,0.81,-0.868984,0.0001
82,0.83,-0.860471,0.0001
84,0.85,-0.852665,0.0001
86,0.87,-0.845144,0.0001
88,0.89,-0.837248,0.0001
90,0.91,-0.828226,0.0001
92,0.93,-0.817405,0.0001
94,0.95,-0.804341,0.0001
96,0.97,-0.78894,0.0001
98,0.99,-0.771498,0.0001
100,1.01,-0.752674,0.0001
102,1.03,-0.73339,0.0001
104,1.05,-0.714682,0.0001
106,1.07,-0.697527,0.0001
108,1.09,-0.682687,0.0001
110,1.11,-0.670594,0.0001
112,1.13,-0.661298,0.0001
114,1.15,-0.654487,0.0001
116,1.17,-0.649565,0.0001
118,1.19,-0.645783,0.0001
120,1.21,-0.642375,0.0001
122,1.23,-0.63869,0.0001
124,1.25,-0.63428,0.0001
126,1.27,-0.628944,0.0001
128,1.29,-0.622705,0.0001
130,1.31,-0.61575,0.0001
132,1.33,-0.608333,0.0001
134,1.35,-0.600678,0.0001
136,1.37,-0.592896,0.0001
138,1.39,-0.584941,0.0001
140,1.41,-0.576602,0.0001
142,1.43,-0.567549,0.0001
144,1.45,-0.557397,0.0001
146,1.47,-0.545793,0.0001
148,1.49,-0.532492,0.0001
150,1.51,-0.517409,0.0001
152,1.53,-0.500638,0.0001
154,1.55,-0.482436,0.0001
156,1.57,-0.463176,0.0001
158,1.59,-0.443282,0.0001
160,1.61,-0.423161,0.0001
162,1.63,-0.403154,0.0001
164,1.65,-0.383507,0.0001
166,1.67,-0.364366,0.0001
168,1.69,-0.345804,0.0001
170,1.71,-0.327852,0.0001
172,1.73,-0.310533,0.0001
174,1.75,-0.293885,0.0001
176,1.77,-0.277963,0.0001
178,1.79,-0.262816,0.0001
180,1.81,-0.24845,0.0001
182,1.83,-0.234791,0.0001
184,1.85,-0.221647,0.0001
186,1.87,-0.20871,0.0001
188,1.89,-0.195577,0.0001
190,1.91,-0.181814,0.0001
192,1.93,-0.167044,0.0001
194,1.95,-0.151041,0.0001
196,1.97,-0.13382,0.0001
198,1.99,-0.115692,0.0001
200,2.01,-0.0972637,0.0001
202,2.03,-0.079392,0.0001
204,2.05,-0.0630787,0.0001
206,2.07,-0.0493293,0.0001
208,2.09,-0.0390001,0.0001
210,2.11,-0.0326594,0.0001
212,2.13,-0.0304919,0.0001
214,2.15,-0.0322651,0.0001
216,2.17,-0.0373648,0.0001
218,2.19,-0.0448963,0.0001
220,2.21,-0.0538296,0.0001
222,2.23,-0.0631632,0.0001
224,2.25,-0.0720735,0.0001
226,2.27,-0.0800215,0.0001
228,2.29,-0.0867981,0.0001
230,2.31,-0.0924988,0.0001
232,2.33,-0.0974387,0.0001
234,2.35,-0.102026,0.0001
236,2.37,-0.106625,0.0001
238,2.39,-0.111433,0.0001
240,2.41,-0.116411,0.0001
242,2.43,-0.121269,0.0001
244,2.45,-0.125516,0.0001
246,2.47,-0.128564,0.0001
248,2.49,-0.129857,0.0001
250,2.51,-0.129005,0.0001
252,2.53,-0.125878,0.0001
254,2.55,-0.120654,0.0001
256,2.57,-0.113801,0.0001
258,2.59,-0.105996,0.0001
260,2.61,-0.0980022,0.0001
262,2.63,-0.0905223,0.0001
264,2.65,-0.084071,0.0001
266,2.67,-0.0788824,0.0001
268,2.69,-0.0748786,0.0001
270,2.71,-0.071703,0.0001
272,2.73,-0.068812,0.0001
274,2.75,-0.065604,0.0001
276,2.77,-0.0615584,0.0001
278,2.79,-0.0563544,0.0001
280,2.81,-0.0499444,0.0001
282,2.83,-0.0425675,0.0001
284,2.85,-0.0347003,0.0001
286,2.87,-0.026956,0.0001
288,2.89,-0.0199552,0.0001
290,2.91,-0.0141944,0.0001
292,2.93,-0.00994069,0.0001
294,2.95,-0.00717391,0.0001
296,2.97,-0.00558588,0.0001
298,2.99,-0.00463615,0.0001
300,3.01,-0.00365005,0.0001
302,3.03,-0.0019374,0.0001
304,3.05,0.0010932,0.0001
306,3.07,0.00584718,0.0001
308,3.09,0.0124997,0.0001
310,3.11,0.0209992,0.0001
312,3.13,0.0311138,0.0001
314,3.15,0.0425059,0.0001
316,3.17,0.0548149,0.0001
318,3.19,0.067729,0.0001
320,3.21,0.0810304,0.0001
322,3.23,0.0946051,0.0001
324,3.25,0.108421,0.0001
326,3.27,0.122481,0.0001
328,3.29,0.136771,0.0001
330,3.31,0.151215,0.0001
332,3.33,0.165652,0.0001
334,3.35,0.179841,0.0001
336,3.37,0.193498,0.0001
338,3.39,0.206343,0.0001
340,3.41,0.218157,0.0001
342,3.43,0.228818,0.0001
344,3.45,0.23832,0.0001
346,3.47,0.24675,0.0001
348,3.49,0.254241,0.0001
350,3.51,0.2609,0.0001
352,3.53,0.266737,0.0001
354,3.55,0.271619,0.0001
356,3.57,0.275249,0.0001
358,3.59,0.2772,0.0001
360,3.61,0.276986,0.0001
362,3.63,0.274173,0.0001
364,3.65,0.268493,0.0001
366,3.67,0.259952,0.0001
368,3.69,0.248887,0.0001
370,3.71,0.235969,0.0001
372,3.73,0.222132,0.0001
374,3.75,0.208453,0.0001
376,3.77,0.195975,0.0001
378,3.79,0.185533,0.0001
380,3.81,0.177598,0.0001
382,3.83,0.172184,0.0001
384,3.85,0.168829,0.0001
386,3.87,0.166664,0.0001
388,3.89,0.164561,0.0001
390,3.91,0.16133,0.0001
392,3.93,0.155933,0.0001
394,3.95,0.147673,0.0001
396,3.97,0.136319,0.0001
398,3.99,0.122148,0.0001
400,4.01,0.105896,0.0001
402,4.03,0.0886129,0.0001
404,4.05,0.0714765,0.0001
406,4.07,0.0555746,0.0001
408,4.09,0.0417153,0.0001
410,4.11,0.0302933,0.0001
412,4.13,0.0212413,0.0001
414,4.15,0.0140705,0.0001
416,4.17,0.00799287,0.0001
418,4.19,0.00209715,0.0001
420,4.21,-0.00445832,0.0001
422,4.23,-0.0122741,0.0001
424,4.25,-0.0215944,0.0001
426,4.27,-0.0322696,0.0001
428,4.29,-0.0438011,0.0001
430,4.31,-0.0554587,0.0001
432,4.33,-0.0664414,0.0001
434,4.35,-0.07605,0.0001
436,4.37,-0.0838325,0.0001
438,4.39,-0.0896754,0.0001
440,4.41,-0.0938201,0.0001
442,4.43,-0.0968053,0.0001
444,4.45,-0.099347,0.0001
446,4.47,-0.102184,0.0001
448,4.49,-0.105919,0.0001
450,4.51,-0.110893,0.0001
452,4.53,-0.117112,0.0001
454,4.55,-0.124244,0.0001
456,4.57,-0.131691,0.0001
458,4.59,-0.138701,0.0001
460,4.61,-0.144525,0.0001
462,4.63,-0.148558,0.0001
464,4.65,-0.150458,0.0001
466,4.67,-0.150205,0.0001
468,4.69,-0.1481,0.0001
470,4.71,-0.1447,0.0001
472,4.73,-0.140714,0.0001
474,4.75,-0.136864,0.0001
476,4.77,-0.13376,0.0001
478,4.79,-0.131803,0.0001
480,4.81,-0.13113,0.0001
482,4.83,-0.131616,0.0001
484,4.85,-0.132927,0.0001
486,4.87,-0.134607,0.0001
488,4.89,-0.136178,0.0001
490,4.91,-0.137241,0.0001
492,4.93,-0.13754,0.0001
494,4.95,-0.136995,0.0001
496,4.97,-0.135688,0.0001
498,4.99,-0.133819,0.0001
500,5.01,-0.131629,0.0001
502,5.03,-0.129327,0.0001
504,5.05,-0.127029,0.0001
506,5.07,-0.124721,0.0001
508,5.09,-0.12226,0.0001
510,5.11,-0.119409,0.0001
512,5.13,-0.115894,0.0001
514,5.15,-0.11148,0.0001
516,5.17,-0.106036,0.0001
518,5.19,-0.0995792,0.0001
520,5.21,-0.0922897,0.0001
522,5.23,-0.084492,0.0001
524,5.25,-0.0766011,0.0001
526,5.27,-0.0690489,0.0001
528,5.29,-0.0622051,0.0001
530,5.31,-0.0563059,0.0001
532,5.33,-0.0514083,0.0001
534,5.35,-0.0473763,0.0001
536,5.37,-0.0439029,0.0001
538,5.39,-0.0405635,0.0001
540,5.41,-0.0368902,0.0001
542,5.43,-0.032453,0.0001
544,5.45,-0.0269332,0.0001
546,5.47,-0.0201762,0.0001
548,5.49,-0.0122141,0.0001
550,5.51,-0.00325761,0.0001
552,5.53,0.00634153,0.0001
554,5.55,0.0161486,0.0001
556,5.57,0.0257131,0.0001
558,5.59,0.0346324,0.0001
560,5.61,0.042603,0.0001
562,5.63,0.0494509,0.0001
564,5.65,0.0551387,0.0001
566,5.67,0.0597518,0.0001
568,5.69,0.0634687,0.0001
570,5.71,0.0665229,0.0001
572,5.73,0.069164,0.0001
574,5.75,0.0716246,0.0001
576,5.77,0.0740974,0.0001
578,5.79,0.0767227,0.0001
580,5.81,0.0795856,0.0001
582,5.83,0.0827186,0.0001
584,5.85,0.0861072,0.0001
586,5.87,0.0896937,0.0001
588,5.89,0.0933788,0.0001
590,5.91,0.0970206,0.0001
592,5.93,0.100434,0.0001
594,5.95,0.103395,0.0001
596,5.97,0.105648,0.0001
598,5.99,0.106925,0.0001
600,6.01,0.106976,0.0001
602,6.03,0.105597,0.0001
604,6.05,0.102672,0.0001
606,6.07,0.098197,0.0001
608,6.09,0.0923023,0.0001
610,6.11,0.0852516,0.0001
612,6.13,0.0774245,0.0001
614,6.15,0.0692781,0.0001
616,6.17,0.0612954,0.0001
618,6.19,0.0539261,0.0001
620,6.21,0.0475297,0.0001
622,6.23,0.0423312,0.0001
624,6.25,0.0383952,0.0001
626,6.27,0.0356255,0.0001
628,6.29,0.0337876,0.0001
630,6.31,0.0325515,0.0001
632,6.33,0.0315468,0.0001
634,6.35,0.0304203,0.0001
636,6.37,0.0288856,0.0001
638,6.39,0.026757,0.0001
640,6.41,0.0239636,0.0001
642,6.43,0.0205417,0.0001
644,6.45,0.0166103,0.0001
646,6.47,0.0123364,0.0001
648,6.49,0.00789809,0.0001
650,6.51,0.00345428,0.0001
652,6.53,-0.000873265,0.0001
654,6.55,-0.00500324,0.0001
656,6.57,-0.00888472,0.0001
658,6.59,-0.0124788,0.0001
660,6.61,-0.0157388,0.0001
662,6.63,-0.0185971,0.0001
664,6.65,-0.0209636,0.0001
666,6.67,-0.0227383,0.0001
668,6.69,-0.0238373,0.0001
670,6.71,-0.0242245,0.0001
672,6.73,-0.0239423,0.0001
674,6.75,-0.0231314,0.0001
676,6.77,-0.0220305,0.0001
678,6.79,-0.0209538,0.0001
680,6.81,-0.0202462,0.0001
682,6.83,-0.020222,0.0001
684,6.85,-0.0210997,0.0001
686,6.87,-0.0229452,0.0001
688,6.89,-0.0256379,0.0001
690,6.91,-0.0288679,0.0001
692,6.93,-0.0321711,0.0001
694,6.95,-0.0349962,0.0001
696,6.97,-0.0367959,0.0001
698,6.99,-0.0371245,0.0001
700,7.01,-0.0357244,0.0001
702,7.03,-0.0325836,0.0001
704,7.05,-0.0279514,0.0001
706,7.07,-0.0223066,0.0001
708,7.09,-0.0162825,0.0001
710,7.11,-0.0105615,0.0001
712,7.13,-0.00575756,0.0001
714,7.15,-0.0023093,0.0001
716,7.17,-0.000404137,0.0001
718,7.19,5.14283e-05,0.0001
720,7.21,-0.000590801,0.0001
722,7.23,-0.00179167,0.0001
724,7.25,-0.00293036,0.0001
726,7.27,-0.00342408,0.0001
728,7.29,-0.00283851,0.0001
730,7.31,-0.000967005,0.0001
732,7.33,0.00213637,0.0001
734,7.35,0.00617613,0.0001
736,7.37,0.010682,0.0001
738,7.39,0.0151087,0.0001
740,7.41,0.0189473,0.0001
742,7.43,0.0218258,0.0001
744,7.45,0.0235778,0.0001
746,7.47,0.0242656,0.0001
748,7.49,0.0241548,0.0001
750,7.51,0.0236464,0.0001
752,7.53,0.0231825,0.0001
754,7.55,0.0231463,0.0001
756,7.57,0.0237785,0.0001
758,7.59,0.025128,0.0001
760,7.61,0.0270467,0.0001
762,7.63,0.0292289,0.0001
764,7.65,0.0312844,0.0001
766,7.67,0.0328304,0.0001
768,7.69,0.0335784,0.0001
770,7.71,0.0333983,0.0001
772,7.73,0.032345,0.0001
774,7.75,0.0306412,0.0001
776,7.77,0.0286225,0.0001
778,7.79,0.026656,0.0001
780,7.81,0.0250534,0.0001
782,7.83,0.0239972,0.0001
784,7.85,0.0234995,0.0001
786,7.87,0.0234001,0.0001
788,7.89,0.0234071,0.0001
790,7.91,0.0231685,0.0001
792,7.93,0.0223595,0.0001
794,7.95,0.020763,0.0001
796,7.97,0.018326,0.0001
798,7.99,0.0151766,0.0001
800,8.01,0.0115973,0.0001
802,8.03,0.00796045,0.0001
804,8.05,0.00464023,0.0001
806,8.07,0.00192118,0.0001
808,8.09,-7.4235e-05,0.0001
810,8.11,-0.00142157,0.0001
812,8.13,-0.00238394,0.0001
814,8.15,-0.0033557,0.0001
816,8.17,-0.00477183,0.0001
818,8.19,-0.00700244,0.0001
820,8.21,-0.0102564,0.0001
822,8.23,-0.0145165,0.0001
824,8.25,-0.0195221,0.0001
826,8.27,-0.024806,0.0001
828,8.29,-0.0297783,0.0001
830,8.31,-0.0338421,0.0001
832,8.33,-0.0365159,0.0001
834,8.35,-0.0375375,0.0001
836,8.37,-0.0369248,0.0001
838,8.39,-0.0349821,0.0001
840,8.41,-0.0322463,0.0001
842,8.43,-0.0293858,0.0001
844,8.45,-0.0270707,0.0001
846,8.47,-0.0258424,0.0001
848,8.49,-0.0260093,0.0001
850,8.51,-0.02759,0.0001
852,8.53,-0.0303163,0.0001
854,8.55,-0.0336951,0.0001
856,8.57,-0.0371152,0.0001
858,8.59,-0.0399767,0.0001
860,8.61,-0.0418154,0.0001
862,8.63,-0.0423956,0.0001
864,8.65,-0.0417527,0.0001
866,8.67,-0.0401772,0.0001
868,8.69,-0.0381448,0.0001
870,8.71,-0.036208,0.0001
872,8.73,-0.0348746,0.0001
874,8.75,-0.0344981,0.0001
876,8.77,-0.0352041,0.0001
878,8.79,-0.0368684,0.0001
880,8.81,-0.0391492,0.0001
882,8.83,-0.0415661,0.0001
884,8.85,-0.043607,0.0001
886,8.87,-0.0448389,0.0001
888,8.89,-0.0449986,0.0001
890,8.91,-0.0440429,0.0001
892,8.93,-0.0421491,0.0001
894,8.95,-0.0396665,0.0001
896,8.97,-0.0370306,0.0001
898,8.99,-0.0346607,0.0001
900,9.01,-0.0328639,0.0001
902,9.03,-0.0317662,0.0001
904,9.05,-0.0312869,0.0001
906,9.07,-0.0311605,0.0001
908,9.09,-0.0309997,0.0001
910,9.11,-0.0303861,0.0001
912,9.13,-0.0289661,0.0001
914,9.15,-0.0265319,0.0001
916,9.17,-0.0230681,0.0001
918,9.19,-0.0187565,0.0001
920,9.21,-0.0139364,0.0001
922,9.23,-0.00903188,0.0001
924,9.25,-0.0044625,0.0001
926,9.27,-0.000557417,0.0001
928,9.29,0.00250779,0.0001
930,9.31,0.00473847,0.0001
932,9.33,0.00630744,0.0001
934,9.35,0.0075052,0.0001
936,9.37,0.00866634,0.0001
938,9.39,0.0100898,0.0001
940,9.41,0.0119709,0.0001
942,9.43,0.0143614,0.0001
944,9.45,0.017164,0.0001
946,9.47,0.0201626,0.0001
948,9.49,0.0230798,0.0001
950,9.51,0.0256463,0.0001
952,9.53,0.027666,0.0001
954,9.55,0.0290608,0.0001
956,9.57,0.0298862,0.0001
958,9.59,0.030312,0.0001
960,9.61,0.0305771,0.0001
962,9.63,0.0309271,0.0001
964,9.65,0.0315511,0.0001
966,9.67,0.0325349,0.0001
968,9.69,0.0338393,0.0001
970,9.71,0.0353115,0.0001
972,9.73,0.0367251,0.0001
974,9.75,0.03784,0.0001
976,9.77,0.0384668,0.0001
978,9.79,0.0385205,0.0001
980,9.81,0.0380487,0.0001
982,9.83,0.0372285,0.0001
984,9.85,0.0363296,0.0001
986,9.87,0.0356531,0.0001
988,9.89,0.0354589,0.0001
990,9.91,0.0358981,0.0001
992,9.93,0.0369675,0.0001
994,9.95,0.0384969,0.0001
996,9.97,0.0401731,0.0001
998,9.99,0.0415982,0.0001
1000,10.01,0.0423689,0.0001
1002,10.03,0.0421606,0.0001
1004,10.05,0.0407997,0.0001
1006,10.07,0.0383063,0.0001
1008,10.09,0.0348989,0.0001
1010,10.11,0.0309594,0.0001
1012,10.13,0.0269645,0.0001
1014,10.15,0.023397,0.0001
1016,10.17,0.0206559,0.0001
1018,10.19,0.0189824,0.0001
1020,10.21,0.0184162,0.0001
1022,10.23,0.0187915,0.0001
1024,10.25,0.019772,0.0001
1026,10.27,0.0209175,0.0001
1028,10.29,0.0217682,0.0001
1030,10.31,0.021931,0.0001
1032,10.33,0.0211492,0.0001
1034,10.35,0.019345,0.0001
1036,10.37,0.0166268,0.0001
1038,10.39,0.0132622,0.0001
1040,10.41,0.00962362,0.0001
1042,10.43,0.00611855,0.0001
1044,10.45,0.00311818,0.0001
1046,10.47,0.000898073,0.0001
1048,10.49,-0.000399672,0.0001
1050,10.51,-0.000777612,0.0001
1052,10.53,-0.000368288,0.0001
1054,10.55,0.000600878,0.0001
1056,10.57,0.00185438,0.0001
1058,10.59,0.00311728,0.0001
1060,10.61,0.00415688,0.0001
1062,10.63,0.00481111,0.0001
1064,10.65,0.00500083,0.0001
1066,10.67,0.00472684,0.0001
1068,10.69,0.004055,0.0001
1070,10.71,0.00309431,0.0001
1072,10.73,0.00197325,0.0001
1074,10.75,0.000818422,0.0001
1076,10.77,-0.000262031,0.0001
1078,10.79,-0.00118926,0.0001
1080,10.81,-0.00191947,0.0001
1082,10.83,-0.00244569,0.0001
1084,10.85,-0.00279672,0.0001
1086,10.87,-0.0030336,0.0001
1088,10.89,-0.00324364,0.0001
1090,10.91,-0.00353117,0.0001
1092,10.93,-0.00400449,0.0001
1094,10.95,-0.0047594,0.0001
1096,10.97,-0.00586056,0.0001
1098,10.99,-0.0073236,0.0001
1100,11.01,-0.00910182,0.0001
1102,11.03,-0.0110814,0.0001
1104,11.05,-0.0130883,0.0001
1106,11.07,-0.0149079,0.0001
1108,11.09,-0.0163163,0.0001
1110,11.11,-0.0171183,0.0001
1112,11.13,-0.0171866,0.0001
1114,11.15,-0.0164924,0.0001
1116,11.17,-0.0151231,0.0001
1118,11.19,-0.013279,0.0001
1120,11.21,-0.0112498,0.0001
1122,11.23,-0.00937224,0.0001
1124,11.25,-0.00797597,0.0001
1126,11.27,-0.00732768,0.0001
1128,11.29,-0.0075837,0.0001
1130,11.31,-0.00876097,0.0001
1132,11.33,-0.0107326,0.0001
1134,11.35,-0.0132494,0.0001
1136,11.37,-0.0159848,0.0001
1138,11.39,-0.0185928,0.0001
1140,11.41,-0.0207704,0.0001
1142,11.43,-0.0223096,0.0001
1144,11.45,-0.0231304,0.0001
1146,11.47,-0.0232883,0.0001
1148,11.49,-0.0229541,0.0001
1150,11.51,-0.0223716,0.0001
1152,11.53,-0.0218021,0.0001
1154,11.55,-0.0214675,0.0001
1156,11.57,-0.0215031,0.0001
1158,11.59,-0.0219314,0.0001
1160,11.61,-0.0226608,0.0001
1162,11.63,-0.023509,0.0001
1164,11.65,-0.0242461,0.0001
1166,11.67,-0.0246474,0.0001
1168,11.69,-0.0245442,0.0001
1170,11.71,-0.0238618,0.0001
1172,11.73,-0.0226373,0.0001
1174,11.75,-0.0210133,0.0001
1176,11.77,-0.0192097,0.0001
1178,11.79,-0.0174799,0.0001
1180,11.81,-0.0160613,0.0001
1182,11.83,-0.0151312,0.0001
1184,11.85,-0.014775,0.0001
1186,11.87,-0.0149759,0.0001
1188,11.89,-0.0156242,0.0001
1190,11.91,-0.0165445,0.0001
1192,11.93,-0.0175345,0.0001
1194,11.95,-0.0184043,0.0001
1196,11.97,-0.0190112,0.0001
1198,11.99,-0.0192792,0.0001
1200,12.01,-0.0192044,0.0001
1202,12.03,-0.0188427,0.0001
1204,12.05,-0.0182879,0.0001
1206,12.07,-0.0176439,0.0001
1208,12.09,-0.0169992,0.0001
1210,12.11,-0.0164095,0.0001
1212,12.13,-0.0158912,0.0001
1214,12.15,-0.0154268,0.0001
1216,12.17,-0.0149788,0.0001
1218,12.19,-0.0145073,0.0001
1220,12.21,-0.0139865,0.0001
1222,12.23,-0.0134139,0.0001
1224,12.25,-0.0128103,0.0001
1226,12.27,-0.0122118,0.0001
1228,12.29,-0.0116534,0.0001
1230,12.31,-0.0111526,0.0001
1232,12.33,-0.0106957,0.0001
1234,12.35,-0.0102318,0.0001
1236,12.37,-0.00967813,0.0001
1238,12.39,-0.00893512,0.0001
1240,12.41,-0.00790859,0.0001
1242,12.43,-0.00653427,0.0001
1244,12.45,-0.00479823,0.0001
1246,12.47,-0.00274808,0.0001
1248,12.49,-0.000491617,0.0001
1250,12.51,0.00181763,0.0001
1252,12.53,0.00400537,0.0001
1254,12.55,0.00590692,0.0001
1256,12.57,0.00739664,0.0001
1258,12.59,0.00841024,0.0001
1260,12.61,0.00895527,0.0001
1262,12.63,0.00910795,0.0001
1264,12.65,0.00899748,0.0001
1266,12.67,0.00878169,0.0001
1268,12.69,0.00861973,0.0001
1270,12.71,0.00864769,0.0001
1272,12.73,0.00896211,0.0001
1274,12.75,0.00961386,0.0001
1276,12.77,0.0106122,0.0001
1278,12.79,0.0119363,0.0001
1280,12.81,0.0135497,0.0001
1282,12.83,0.015412,0.0001
1284,12.85,0.0174857,0.0001
1286,12.87,0.0197337,0.0001
1288,12.89,0.0221108,0.0001
1290,12.91,0.0245518,0.0001
1292,12.93,0.0269602,0.0001
1294,12.95,0.0292049,0.0001
1296,12.97,0.0311272,0.0001
1298,12.99,0.0325594,0.0001
1300,13.01,0.0333536,0.0001
1302,13.03,0.0334149,0.0001
1304,13.05,0.0327312,0.0001
1306,13.07,0.0313918,0.0001
1308,13.09,0.0295891,0.0001
1310,13.11,0.0275988,0.0001
1312,13.13,0.0257414,0.0001
1314,13.15,0.0243301,0.0001
1316,13.17,0.0236148,0.0001
1318,13.19,0.0237331,0.0001
1320,13.21,0.0246803,0.0001
1322,13.23,0.0263038,0.0001
1324,13.25,0.0283268,0.0001
1326,13.27,0.0303963,0.0001
1328,13.29,0.0321476,0.0001
1330,13.31,0.0332726,0.0001
1332,13.33,0.0335781,0.0001
1334,13.35,0.033022,0.0001
1336,13.37,0.0317189,0.0001
1338,13.39,0.0299143,0.0001
1340,13.41,0.0279318,0.0001
1342,13.43,0.0261041,0.0001
1344,13.45,0.024702,0.0001
1346,13.47,0.0238768,0.0001
1348,13.49,0.0236281,0.0001
1350,13.51,0.0238039,0.0001
1352,13.53,0.0241341,0.0001
1354,13.55,0.0242888,0.0001
1356,13.57,0.0239511,0.0001
1358,13.59,0.0228872,0.0001
1360,13.61,0.0209999,0.0001
1362,13.63,0.0183533,0.0001
1364,13.65,0.0151633,0.0001
1366,13.67,0.0117563,0.0001
1368,13.69,0.00850376,0.0001
1370,13.71,0.00574721,0.0001
1372,13.73,0.00372936,0.0001
1374,13.75,0.00254548,0.0001
1376,13.77,0.0021257,0.0001
1378,13.79,0.00225153,0.0001
1380,13.81,0.00260316,0.0001
1382,13.83,0.00282728,0.0001
1384,13.85,0.00261122,0.0001
1386,13.87,0.00174771,0.0001
1388,13.89,0.000177052,0.0001
1390,13.91,-0.00200185,0.0001
1392,13.93,-0.00455346,0.0001
1394,13.95,-0.00715552,0.0001
1396,13.97,-0.00946602,0.0001
1398,13.99,-0.0111934,0.0001
1400,14.01,-0.0121555,0.0001
1402,14.03,-0.0123154,0.0001
1404,14.05,-0.011788,0.0001
1406,14.07,-0.0108168,0.0001
1408,14.09,-0.00972577,0.0001
1410,14.11,-0.00885865,0.0001
1412,14.13,-0.00851586,0.0001
1414,14.15,-0.00890312,0.0001
1416,14.17,-0.0101002,0.0001
1418,14.19,-0.0120546,0.0001
1420,14.21,-0.0145994,0.0001
1422,14.23,-0.0174898,0.0001
1424,14.25,-0.0204499,0.0001
1426,14.27,-0.0232189,0.0001
1428,14.29,-0.0255887,0.0001
1430,14.31,-0.0274272,0.0001
1432,14.33,-0.0286832,0.0001
1434,14.35,-0.029377,0.0001
1436,14.37,-0.0295808,0.0001
1438,14.39,-0.0293935,0.0001
1440,14.41,-0.02892,0.0001
1442,14.43,-0.0282558,0.0001
1444,14.45,-0.0274808,0.0001
1446,14.47,-0.026662,0.0001
1448,14.49,-0.0258598,0.0001
1450,14.51,-0.0251353,0.0001
1452,14.53,-0.024554,0.0001
1454,14.55,-0.024182,0.0001
1456,14.57,-0.024077,0.0001
1458,14.59,-0.0242725,0.0001
1460,14.61,-0.024764,0.0001
1462,14.63,-0.0254967,0.0001
1464,14.65,-0.0263646,0.0001
1466,14.67,-0.0272189,0.0001
1468,14.69,-0.0278885,0.0001
1470,14.71,-0.0282077,0.0001
1472,14.73,-0.0280473,0.0001
1474,14.75,-0.0273408,0.0001
1476,14.77,-0.0261009,0.0001
1478,14.79,-0.0244211,0.0001
1480,14.81,-0.0224615,0.0001
1482,14.83,-0.0204208,0.0001
1484,14.85,-0.0185003,0.0001
1486,14.87,-0.0168664,0.0001
1488,14.89,-0.0156197,0.0001
1490,14.91,-0.0147776,0.0001
1492,14.93,-0.0142738,0.0001
1494,14.95,-0.0139752,0.0001
1496,14.97,-0.0137115,0.0001
1498,14.99,-0.0133124,0.0001
1500,15.01,-0.0126446,0.0001
1502,15.03,-0.0116383,0.0001
1504,15.05,-0.0103009,0.0001
1506,15.07,-0.00871303,0.0001
1508,15.09,-0.00700871,0.0001
1510,15.11,-0.00534458,0.0001
1512,15.13,-0.0038651,0.0001
1514,15.15,-0.00267144,0.0001
1516,15.17,-0.001801,0.0001
1518,15.19,-0.0012218,0.0001
1520,15.21,-0.000842704,0.0001
1522,15.23,-0.0005367,0.0001
1524,15.25,-0.000171784,0.0001
1526,15.27,0.000357875,0.0001
1528,15.29,0.00110753,0.0001
1530,15.31,0.0020697,0.0001
1532,15.33,0.00317692,0.0001
1534,15.35,0.00431851,0.0001
1536,15.37,0.0053674,0.0001
1538,15.39,0.00621089,0.0001
1540,15.41,0.00677821,0.0001
1542,15.43,0.00705875,0.0001
1544,15.45,0.00710688,0.0001
1546,15.47,0.00703229,0.0001
1548,15.49,0.00697792,0.0001
1550,15.51,0.00709039,0.0001
1552,15.53,0.00748918,0.0001
1554,15.55,0.00824112,0.0001
1556,15.57,0.00934524,0.0001
1558,15.59,0.0107312,0.0001
1560,15.61,0.0122708,0.0001
1562,15.63,0.0138009,0.0001
1564,15.65,0.0151514,0.0001
1566,15.67,0.0161745,0.0001
1568,15.69,0.0167681,0.0001
1570,15.71,0.0168908,0.0001
1572,15.73,0.0165652,0.0001
1574,15.75,0.0158712,0.0001
1576,15.77,0.0149303,0.0001
1578,15.79,0.0138855,0.0001
1580,15.81,0.012881,0.0001
1582,15.83,0.0120434,0.0001
1584,15.85,0.0114699,0.0001
1586,15.87,0.0112204,0.0001
1588,15.89,0.0113172,0.0001
1590,15.91,0.0117471,0.0001
1592,15.93,0.012467,0.0001
1594,15.95,0.0134093,0.0001
1596,15.97,0.0144883,0.0001
1598,15.99,0.0156058,0.0001
1600,16.01,0.0166568,0.0001
1602,16.03,0.0175379,0.0001
1604,16.05,0.0181555,0.0001
1606,16.07,0.0184375,0.0001
1608,16.09,0.0183439,0.0001
1610,16.11,0.0178766,0.0001
1612,16.13,0.0170847,0.0001
1614,16.15,0.0160638,0.0001
1616,16.17,0.0149472,0.0001
1618,16.19,0.0138895,0.0001
1620,16.21,0.0130441,0.0001
1622,16.23,0.0125387,0.0001
1624,16.25,0.0124516,0.0001
1626,16.27,0.0127957,0.0001
1628,16.29,0.013512,0.0001
1630,16.31,0.0144761,0.0001
1632,16.33,0.0155165,0.0001
1634,16.35,0.0164427,0.0001
1636,16.37,0.0170778,0.0001
1638,16.39,0.0172893,0.0001
1640,16.41,0.0170136,0.0001
1642,16.43,0.0162675,0.0001
1644,16.45,0.0151449,0.0001
1646,16.47,0.0137998,0.0001
1648,16.49,0.0124179,0.0001
1650,16.51,0.0111817,0.0001
1652,16.53,0.0102373,0.0001
1654,16.55,0.00966794,0.0001
1656,16.57,0.00948001,0.0001
1658,16.59,0.00960338,0.0001
1660,16.61,0.00990655,0.0001
1662,16.63,0.0102226,0.0001
1664,16.65,0.0103814,0.0001
1666,16.67,0.0102404,0.0001
1668,16.69,0.00971031,0.0001
1670,16.71,0.00876844,0.0001
1672,16.73,0.00746003,0.0001
1674,16.75,0.00588656,0.0001
1676,16.77,0.00418474,0.0001
1678,16.79,0.00250069,0.0001
1680,16.81,0.000964581,0.0001
1682,16.83,-0.000329398,0.0001
1684,16.85,-0.00133449,0.0001
1686,16.87,-0.00205289,0.0001
1688,16.89,-0.0025282,0.0001
1690,16.91,-0.0028314,0.0001
1692,16.93,-0.00304401,0.0001
1694,16.95,-0.00324225,0.0001
1696,16.97,-0.00348522,0.0001
1698,16.99,-0.00380892,0.0001
1700,17.01,-0.00422634,0.0001
1702,17.03,-0.00473227,0.0001
1704,17.05,-0.00531071,0.0001
1706,17.07,-0.00594245,0.0001
1708,17.09,-0.00661056,0.0001
1710,17.11,-0.00730274,0.0001
1712,17.13,-0.00801031,0.0001
1714,17.15,-0.00872501,0.0001
1716,17.17,-0.00943509,0.0001
1718,17.19,-0.0101227,0.0001
1720,17.21,-0.0107635,0.0001
1722,17.23,-0.0113299,0.0001
1724,17.25,-0.0117966,0.0001
1726,17.27,-0.012147,0.0001
1728,17.29,-0.0123793,0.0001
1730,17.31,-0.0125094,0.0001
1732,17.33,-0.0125703,0.0001
1734,17.35,-0.0126062,0.0001
1736,17.37,-0.0126642,0.0001
1738,17.39,-0.0127829,0.0001
1740,17.41,-0.012983,0.0001
1742,17.43,-0.0132607,0.0001
1744,17.45,-0.0135865,0.0001
1746,17.47,-0.0139104,0.0001
1748,17.49,-0.0141722,0.0001
1750,17.51,-0.0143151,0.0001
1752,17.53,-0.0143007,0.0001
1754,17.55,-0.0141195,0.0001
1756,17.57,-0.013798,0.0001
1758,17.59,-0.0133962,0.0001
1760,17.61,-0.0129992,0.0001
1762,17.63,-0.0127019,0.0001
1764,17.65,-0.0125907,0.0001
1766,17.67,-0.0127259,0.0001
1768,17.69,-0.0131273,0.0001
1770,17.71,-0.013768,0.0001
1772,17.73,-0.0145758,0.0001
1774,17.75,-0.0154432,0.0001
1776,17.77,-0.0162441,0.0001
1778,17.79,-0.0168531,0.0001
1780,17.81,-0.0171657,0.0001
1782,17.83,-0.0171135,0.0001
1784,17.85,-0.0166732,0.0001
1786,17.87,-0.0158686,0.0001
1788,17.89,-0.0147639,0.0001
1790,17.91,-0.0134529,0.0001
1792,17.93,-0.0120433,0.0001
1794,17.95,-0.0106429,0.0001
1796,17.97,-0.00934643,0.0001
1798,17.99,-0.00822735,0.0001
1800,18.01,-0.00733449,0.0001
1802,18.03,-0.00669244,0.0001
1804,18.05,-0.00630494,0.0001
1806,18.07,-0.00615937,0.0001
1808,18.09,-0.00623075,0.0001
1810,18.11,-0.00648435,0.0001
1812,18.13,-0.00687664,0.0001
1814,18.15,-0.00735523,0.0001
1816,18.17,-0.00785906,0.0001
1818,18.19,-0.00831975,0.0001
1820,18.21,-0.00866545,0.0001
1822,18.23,-0.00882702,0.0001
1824,18.25,-0.00874616,0.0001
1826,18.27,-0.00838388,0.0001
1828,18.29,-0.00772748,0.0001
1830,18.31,-0.00679416,0.0001
1832,18.33,-0.00562988,0.0001
1834,18.35,-0.00430308,0.0001
1836,18.37,-0.00289406,0.0001
1838,18.39,-0.00148177,0.0001
1840,18.41,-0.00013086,0.0001
1842,18.43,0.00111857,0.0001
1844,18.45,0.0022559,0.0001
1846,18.47,0.00329843,0.0001
1848,18.49,0.00428356,0.0001
1850,18.51,0.00525608,0.0001
1852,18.53,0.00625347,0.0001
1854,18.55,0.00729243,0.0001
1856,18.57,0.00835998,0.0001
1858,18.59,0.00941125,0.0001
1860,18.61,0.0103752,0.0001
1862,18.63,0.011167,0.0001
1864,18.65,0.0117054,0.0001
1866,18.67,0.0119309,0.0001
1868,18.69,0.0118211,0.0001
1870,18.71,0.0114003,0.0001
1872,18.73,0.0107401,0.0001
1874,18.75,0.00995108,0.0001
1876,18.77,0.00916708,0.0001
1878,18.79,0.00852396,0.0001
1880,18.81,0.00813771,0.0001
1882,18.83,0.00808559,0.0001
1884,18.85,0.00839381,0.0001
1886,18.87,0.00903418,0.0001
1888,18.89,0.00992994,0.0001
1890,18.91,0.0109697,0.0001
1892,18.93,0.0120267,0.0001
1894,18.95,0.0129793,0.0001
1896,18.97,0.0137296,0.0001
1898,18.99,0.0142166,0.0001
1900,19.01,0.0144222,0.0001
1902,19.03,0.014369,0.0001
1904,19.05,0.0141121,0.0001
1906,19.07,0.0137259,0.0001
1908,19.09,0.0132896,0.0001
1910,19.11,0.0128738,0.0001
1912,19.13,0.0125303,0.0001
1914,19.15,0.0122871,0.0001
1916,19.17,0.0121472,0.0001
1918,19.19,0.0120929,0.0001
1920,19.21,0.012092,0.0001
1922,19.23,0.0121047,0.0001
1924,19.25,0.0120909,0.0001
1926,19.27,0.0120155,0.0001
1928,19.29,0.0118519,0.0001
1930,19.31,0.0115835,0.0001
1932,19.33,0.0112048,0.0001
1934,19.35,0.0107209,0.0001
1936,19.37,0.0101471,0.0001
1938,19.39,0.00950917,0.0001
1940,19.41,0.00884157,0.0001
1942,19.43,0.00818628,0.0001
1944,19.45,0.0075893,0.0001
1946,19.47,0.00709571,0.0001
1948,19.49,0.00674327,0.0001
1950,19.51,0.00655529,0.0001
1952,19.53,0.00653421,0.0001
1954,19.55,0.00665736,0.0001
1956,19.57,0.00687622,0.0001
1958,19.59,0.00712028,0.0001
1960,19.61,0.00730537,0.0001
1962,19.63,0.00734561,0.0001
1964,19.65,0.00716724,0.0001
1966,19.67,0.00672174,0.0001
1968,19.69,0.00599586,0.0001
1970,19.71,0.00501625,0.0001
1972,19.73,0.0038476,0.0001
1974,19.75,0.00258411,0.0001
1976,19.77,0.00133571,0.0001
1978,19.79,0.000211285,0.0001
1980,19.81,-0.000698072,0.0001
1982,19.83,-0.00133264,0.0001
1984,19.85,-0.00167217,0.0001
1986,19.87,-0.00173709,0.0001
1988,19.89,-0.0015828,0.0001
1990,19.91,-0.00128853,0.0001
1992,19.93,-0.000943123,0.0001
1994,19.95,-0.000630662,0.0001
1996,19.97,-0.000418742,0.0001
1998,19.99,-0.000351449,0.0001
2000,20.01,-0.000447895,0.0001