File: data/xrd_measurements/Li3PS4/F_of_Q.csv
Q,F,dF
-0.537148,-0.192282,0
-0.518638,-0.19752,0
-0.500129,-0.200077,0
-0.48162,-0.202114,0
-0.463112,-0.204323,0
-0.444605,-0.204673,0
-0.426098,-0.203866,0
-0.407592,-0.209422,0
-0.389087,-0.211117,0
-0.370582,-0.206863,0
-0.352078,-0.208049,0
-0.333574,-0.210053,0
-0.315072,-0.205008,0
-0.29657,-0.20491,0
-0.278068,-0.205305,0
-0.259568,-0.200453,0
-0.241068,-0.198841,0
-0.22257,-0.191164,0
-0.204072,-0.1855,0
-0.185575,-0.181068,0
-0.167079,-0.171129,0
-0.148584,-0.161737,0
-0.130089,-0.150038,0
-0.111596,-0.139396,0
-0.0931037,-0.117623,0
-0.0746123,-0.104366,0
-0.056122,-0.083598,0
-0.0376327,-0.060626,0
-0.0191445,-0.029555,0
-0.000657308,0.00877,0
0.0178288,0.044615,0
0.0363137,0.090316,0
0.0547975,0.142236,0
0.0732802,0.201612,0
0.0917616,0.266081,0
0.110242,0.334938,0
0.128721,0.408248,0
0.147199,0.486311,0
0.165675,0.56514,0
0.184151,0.639184,0
0.202625,0.708401,0
0.221097,0.767284,0
0.239569,0.816221,0
0.258039,0.845174,0
0.276507,0.857834,0
0.294974,0.854134,0
0.31344,0.836433,0
0.331905,0.80528,0
0.350367,0.773741,0
0.368829,0.7288,0
0.387289,0.679025,0
0.405747,0.630018,0
0.424204,0.582097,0
0.442659,0.542548,0
0.461113,0.49765,0
0.479565,0.464374,0
0.498015,0.424301,0
0.5164642,0.397831,0
0.534911,0.370152,0
0.553357,0.354542,0
0.571801,0.33602,0
0.590243,0.323101,0
0.608683,0.317063,0
0.627121,0.312833,0
0.645558,0.315982,0
0.663993,0.320968,0
0.682426,0.33044,0
0.700858,0.340765,0
0.719287,0.360494,0
0.737715,0.380995,0
0.75614,0.410942,0
0.774564,0.44334,0
0.792986,0.47912,0
0.811405,0.519741,0
0.829823,0.581786,0
0.848239,0.636019,0
0.866653,0.707226,0
0.885064,0.815314,0
0.903474,0.906525,0
0.921882,0.970164,0
0.940287,1.064967,0
0.95869,1.195531,0
0.977092,1.320192,0
0.995491,1.461428,0
1.01389,1.589325,0
1.03228,1.712764,0
1.05067,1.811081,0
1.06906,1.884334,0
1.08745,1.928612,0
1.10584,1.916418,0
1.12422,1.871091,0
1.1426,1.784908,0
1.16098,1.682423,0
1.17936,1.567155,0
1.19773,1.45086,0
1.2161,1.32129,0
1.23447,1.210489,0
1.25284,1.104806,0
1.2712,1.014109,0
1.28956,0.948489,0
1.30792,0.879805,0
1.32628,0.820074,0
1.34463,0.768563,0
1.36298,0.733507,0
1.38133,0.698291,0
1.39968,0.668146,0
1.41802,0.639481,0
1.43636,0.626318,0
1.4547,0.607901,0
1.47304,0.594678,0
1.49137,0.582875,0
1.5097,0.576686,0
1.52803,0.568237,0
1.54635,0.570916,0
1.56467,0.564953,0
1.58299,0.571547,0
1.60131,0.577587,0
1.61962,0.581014,0
1.63793,0.587232,0
1.65624,0.599389,0
1.67455,0.601615,0
1.69285,0.616906,0
1.71115,0.618943,0
1.72944,0.631662,0
1.74773,0.638615,0
1.76602,0.653022,0
1.78431,0.656402,0
1.80259,0.667753,0
1.82088,0.677357,0
1.83915,0.696424,0
1.85743,0.712292,0
1.8757,0.724548,0
1.89397,0.73296,0
1.91223,0.748598,0
1.93049,0.762639,0
1.94875,0.778174,0
1.96701,0.792901,0
1.98526,0.80976,0
2.00351,0.826367,0
2.02175,0.841814,0
2.04,0.853859,0
2.05823,0.867958,0
2.07647,0.89894,0
2.0947,0.93426,0
2.11293,0.92874,0
2.13116,0.921036,0
2.14938,0.924678,0
2.1676,0.931039,0
2.18581,0.936904,0
2.20402,0.939056,0
2.22223,0.953199,0
2.24043,0.950969,0
2.25864,0.954263,0
2.27683,0.961795,0
2.29503,0.967945,0
2.31322,0.976867,0
2.3314,0.995668,0
2.34959,1.011386,0
2.36776,1.029588,0
2.38594,1.049591,0
2.40411,1.074667,0
2.42228,1.094402,0
2.44044,1.123657,0
2.4586,1.150163,0
2.47676,1.173546,0
2.49491,1.199373,0
2.51306,1.232167,0
2.53121,1.246006,0
2.54935,1.26448,0
2.56749,1.288097,0
2.58562,1.309279,0
2.60375,1.322997,0
2.62188,1.356609,0
2.64,1.379656,0
2.65811,1.37276,0
2.67623,1.358156,0
2.69434,1.365255,0
2.71244,1.3674,0
2.73054,1.364322,0
2.74864,1.361507,0
2.76674,1.366865,0
2.78482,1.360814,0
2.80291,1.35814,0
2.82099,1.353834,0
2.83907,1.349726,0
2.85714,1.341386,0
2.87521,1.344341,0
2.89327,1.342846,0
2.91133,1.344643,0
2.92939,1.336749,0
2.94744,1.336938,0
2.96548,1.333192,0
2.98353,1.337774,0
3.00156,1.336411,0
3.0196,1.332827,0
3.03763,1.326753,0
3.05565,1.324117,0
3.07367,1.329067,0
3.09169,1.315287,0
3.1097,1.312845,0
3.12771,1.307991,0
3.14571,1.295399,0
3.16371,1.278708,0
3.1817,1.263461,0
3.19969,1.248055,0
3.21767,1.228076,0
3.23565,1.220883,0
3.25363,1.195781,0
3.2716,1.171411,0
3.28956,1.154955,0
3.30752,1.13805,0
3.32548,1.109312,0
3.34343,1.089748,0
3.36138,1.067792,0
3.37932,1.050034,0
3.39726,1.036014,0
3.41519,1.010409,0
3.43311,0.994604,0
3.45104,0.969057,0
3.46895,0.960072,0
3.48687,0.938553,0
3.50477,0.931949,0
3.52268,0.922786,0
3.54058,0.912363,0
3.55847,0.899487,0
3.57636,0.892342,0
3.59424,0.876703,0
3.61212,0.871828,0
3.62999,0.874785,0
3.64786,0.859933,0
3.66572,0.855057,0
3.68358,0.855064,0
3.70143,0.847756,0
3.71928,0.847657,0
3.73712,0.850153,0
3.75495,0.841984,0
3.77279,0.855604,0
3.79061,0.852831,0
3.80843,0.849811,0
3.82625,0.83572,0
3.84406,0.8386,0
3.86186,0.839908,0
3.87966,0.836388,0
3.89746,0.843859,0
3.91525,0.835887,0
3.93303,0.825198,0
3.95081,0.819848,0
3.96858,0.826781,0
3.98635,0.824762,0
4.00411,0.816735,0
4.02187,0.825891,0
4.03962,0.812327,0
4.05737,0.80974,0
4.0751,0.803616,0
4.09284,0.815423,0
4.11057,0.807196,0
4.12829,0.801478,0
4.14601,0.787473,0
4.16372,0.796272,0
4.18143,0.798362,0
4.19913,0.795082,0
4.21682,0.780618,0
4.23451,0.7794,0
4.25219,0.780826,0
4.26987,0.77888,0
4.28754,0.77599,0
4.30521,0.789228,0
4.32287,0.777444,0
4.34052,0.786288,0
4.35817,0.805192,0
4.37582,0.791951,0
4.39345,0.799668,0
4.41108,0.789735,0
4.42871,0.803626,0
4.44633,0.798362,0
4.46394,0.818299,0
4.48155,0.817144,0
4.49915,0.832036,0
4.51674,0.837763,0
4.53433,0.848286,0
4.55191,0.849629,0
4.56949,0.866588,0
4.58706,0.867866,0
4.60463,0.905078,0
4.62218,0.891185,0
4.63974,0.900557,0
4.65728,0.910673,0
4.67482,0.917534,0
4.69236,0.947226,0
4.70988,0.954306,0
4.7274,0.94134,0
4.74492,0.954984,0
4.76243,0.974274,0
4.77993,0.974401,0
4.79743,0.991695,0
4.81492,0.991219,0
4.8324,0.997609,0
4.84987,1.009895,0
4.86735,1.039502,0
4.88481,1.019968,0
4.90227,1.039836,0
4.91972,1.043048,0
4.93716,1.040409,0
4.9546,1.061673,0
4.97203,1.060717,0
4.98946,1.075944,0
5.00687,1.079608,0
5.02429,1.083226,0
5.04169,1.090034,0
5.05909,1.09834,0
5.07648,1.108013,0
5.09387,1.110293,0
5.11124,1.106957,0
5.12862,1.119778,0
5.14598,1.116319,0
5.16334,1.118872,0
5.18069,1.126607,0
5.19804,1.140276,0
5.21537,1.132788,0
5.23271,1.135353,0
5.25003,1.151464,0
5.26735,1.127007,0
5.28466,1.135657,0
5.30196,1.139186,0
5.31926,1.135478,0
5.33655,1.13509,0
5.35383,1.132286,0
5.37111,1.133178,0
5.38838,1.126558,0
5.40564,1.125868,0
5.42289,1.119175,0
5.44014,1.117993,0
5.45738,1.098524,0
5.47461,1.117998,0
5.49184,1.119848,0
5.50906,1.110917,0
5.52627,1.104516,0
5.54348,1.08663,0
5.56068,1.084281,0
5.57787,1.097383,0
5.59505,1.082431,0
5.61223,1.07561,0
5.6294,1.071483,0
5.64656,1.062143,0
5.66371,1.050207,0
5.68086,1.055425,0
5.698,1.051111,0
5.71513,1.041812,0
5.73226,1.044014,0
5.74938,1.029919,0
5.76649,1.039252,0
5.78359,1.02563,0
5.80068,1.018768,0
5.81777,1.026226,0
5.83485,1.02806,0
5.85193,1.013379,0
5.86899,1.009979,0
5.88605,1.0051,0
5.9031,1.012674,0
5.92014,1.010678,0
5.93718,1.000048,0
5.95421,0.996847,0
5.97123,1.014678,0
5.98824,1.00952,0
6.00525,1.005742,0
6.02224,1.015272,0
6.03923,1.007018,0
6.05621,1.007979,0
6.07319,1.000191,0
6.09015,1.008824,0
6.10711,1.01071,0
6.12406,1.000359,0
6.14101,1.01318,0
6.15794,0.999149,0
6.17487,0.985779,0
6.19179,1.018358,0
6.2087,1.010584,0
6.2256,1.00173,0
6.2425,1.013505,0
6.25939,1.00932,0
6.27627,1.00962,0
6.29314,1.003903,0
6.31,1.025557,0
6.32686,1.016361,0
6.3437,1.028057,0
6.36054,1.019971,0
6.37738,1.014479,0
6.3942,1.022464,0
6.41101,1.029238,0
6.42782,1.015718,0
6.44462,1.025803,0
6.46141,1.019609,0
6.47819,1.022266,0
6.49497,1.027467,0
6.51174,1.024728,0
6.52849,1.023971,0
6.54524,1.032588,0
6.56198,1.031386,0
6.57872,1.036218,0
6.59544,1.040975,0
6.61216,1.035907,0
6.62887,1.032197,0
6.64557,1.037243,0
6.66226,1.041378,0
6.67894,1.040471,0
6.69562,1.041081,0
6.71228,1.052913,0
6.72894,1.034184,0
6.74559,1.042231,0
6.76223,1.038495,0
6.77886,1.041466,0
6.79549,1.038571,0
6.8121,1.040456,0
6.82871,1.052553,0
6.84531,1.039753,0
6.8619,1.039092,0
6.87848,1.033721,0
6.89505,1.038243,0
6.91161,1.031381,0
6.92817,1.018849,0
6.94472,1.019483,0
6.96125,1.029678,0
6.97778,1.025811,0
6.9943,1.009729,0
7.01081,1.028415,0
7.02732,1.019194,0
7.04381,1.022389,0
7.06029,1.008399,0
7.07677,1.005904,0
7.09324,1.004546,0
7.1097,1.010538,0
7.12614,0.997532,0
7.14258,1.002299,0
7.15902,0.986199,0
7.17544,0.976888,0
7.19185,0.992251,0
7.20826,0.988448,0
7.22465,0.976883,0
7.24104,0.963071,0
7.25742,0.977592,0
7.27379,0.955606,0
7.29015,0.944667,0
7.3065,0.957946,0
7.32284,0.945662,0
7.33917,0.952863,0
7.35549,0.9534,0
7.37181,0.928292,0
7.38811,0.930494,0
7.40441,0.925197,0
7.42069,0.93296,0
7.43697,0.919106,0
7.45324,0.912385,0
7.4695,0.917606,0
7.48574,0.909596,0
7.50198,0.911604,0
7.51821,0.896733,0
7.53444,0.895567,0
7.55065,0.897488,0
7.56685,0.884932,0
7.58304,0.888685,0
7.59923,0.889822,0
7.6154,0.891018,0
7.63157,0.893499,0
7.64772,0.876079,0
7.66387,0.867618,0
7.68,0.876798,0
7.69613,0.868289,0
7.71225,0.885579,0
7.72836,0.879054,0
7.74445,0.861347,0
7.76054,0.869087,0
7.77662,0.880409,0
7.79269,0.869751,0
7.80875,0.871505,0
7.8248,0.87926,0
7.84084,0.860872,0
7.85687,0.876186,0
7.87289,0.871616,0
7.8889,0.874991,0
7.9049,0.888009,0
7.9209,0.882854,0
7.93688,0.889909,0
7.95285,0.901826,0
7.96881,0.887677,0
7.98477,0.899424,0
8.00071,0.914653,0
8.01664,0.899772,0
8.03256,0.900339,0
8.04848,0.897171,0
8.06438,0.910494,0
8.08027,0.907087,0
8.09616,0.92209,0
8.11203,0.926104,0
8.12789,0.91819,0
8.14375,0.912256,0
8.15959,0.932434,0
8.17542,0.934487,0
8.19124,0.948018,0
8.20706,0.949015,0
8.22286,0.958392,0
8.23865,0.969314,0
8.25444,0.982282,0
8.27021,0.968621,0
8.28597,0.987225,0
8.30172,1.003712,0
8.31746,0.983014,0
8.3332,1.009199,0
8.34892,1.012886,0
8.36463,1.018516,0
8.38033,1.004747,0
8.39602,1.035771,0
8.4117,1.037853,0
8.42737,1.037137,0
8.44303,1.059643,0
8.45868,1.038145,0
8.47432,1.046155,0
8.48995,1.054375,0
8.50557,1.072634,0
8.52117,1.059821,0
8.53677,1.084575,0
8.55236,1.090881,0
8.56793,1.094093,0
8.5835,1.084283,0
8.59905,1.088636,0
8.6146,1.110318,0
8.63013,1.105896,0
8.64566,1.080065,0
8.66117,1.098768,0
8.67667,1.119885,0
8.69216,1.090374,0
8.70765,1.126163,0
8.72312,1.114837,0
8.73858,1.122096,0
8.75403,1.133797,0
8.76946,1.114078,0
8.78489,1.108364,0
8.80031,1.125414,0
8.81572,1.124853,0
8.83111,1.131767,0
8.8465,1.13652,0
8.86187,1.149108,0
8.87723,1.131659,0
8.89259,1.149102,0
8.90793,1.127085,0
8.92326,1.153772,0
8.93858,1.131227,0
8.95389,1.159093,0
8.96919,1.136076,0
8.98447,1.127682,0
8.99975,1.138308,0
9.01501,1.116087,0
9.03027,1.123813,0
9.04551,1.109637,0
9.06074,1.12693,0
9.07597,1.108753,0
9.09118,1.135524,0
9.10637,1.115462,0
9.12156,1.117204,0
9.13674,1.107568,0
9.1519,1.105964,0
9.16706,1.097279,0
9.1822,1.085161,0
9.19734,1.084455,0
9.21246,1.075227,0
9.22757,1.075352,0
9.24266,1.085252,0
9.25775,1.095903,0
9.27283,1.088015,0
9.28789,1.072624,0
9.30295,1.048937,0
9.31799,1.062157,0
9.33302,1.051268,0
9.34804,1.05237,0
9.36305,1.058221,0
9.37805,1.048455,0
9.39303,1.048606,0
9.40801,1.044711,0
9.42297,1.021807,0
9.43792,1.020197,0
9.45286,1.006059,0
9.46779,1.024773,0
9.48271,1.000755,0
9.49761,0.998743,0
9.5125,0.983995,0
9.52739,0.990215,0
9.54226,1.024263,0
9.55712,0.990517,0
9.57197,0.990853,0
9.5868,0.997029,0
9.60163,0.988162,0
9.61644,0.975267,0
9.63124,0.975598,0
9.64603,0.969237,0
9.66081,0.946756,0
9.67557,0.984971,0
9.69033,0.988625,0
9.70507,0.97389,0
9.7198,0.936866,0
9.73452,0.945496,0
9.74923,0.949402,0
9.76393,0.961478,0
9.77861,0.940319,0
9.79328,0.974374,0
9.80794,0.966534,0
9.82259,0.969378,0
9.83723,0.935358,0
9.85185,0.939367,0
9.86646,0.937455,0
9.88107,0.947258,0
9.89565,0.939899,0
9.91023,0.940425,0
9.9248,0.941249,0
9.93935,0.943462,0
9.95389,0.933948,0
9.96842,0.952289,0
9.98294,0.921162,0
9.99744,0.940441,0
10.0119,0.917339,0
10.0264,0.931786,0
10.0409,0.945181,0
10.0553,0.935388,0
10.0698,0.920222,0
10.0842,0.936886,0
10.0986,0.937574,0
10.113,0.926436,0
10.1274,0.915592,0
10.1418,0.931755,0
10.1562,0.909259,0
10.1706,0.920762,0
10.1849,0.925875,0
10.1992,0.948143,0
10.2136,0.931641,0
10.2279,0.940634,0
10.2422,0.941408,0
10.2565,0.945499,0
10.2707,0.915444,0
10.285,0.943178,0
10.2992,0.943128,0
10.3135,0.939828,0
10.3277,0.935547,0
10.3419,0.944311,0
10.3561,0.949418,0
10.3703,0.992896,0
10.3845,0.978167,0
10.3986,0.969938,0
10.4128,0.944037,0
10.4269,0.948381,0
10.441,0.947712,0
10.4551,0.974313,0
10.4692,0.960302,0
10.4833,0.967588,0
10.4974,0.957255,0
10.5115,0.963636,0
10.5255,0.965708,0
10.5396,0.96518,0
10.5536,0.935579,0
10.5676,0.948939,0
10.5816,1.011687,0
10.5956,0.944125,0
10.6095,0.969937,0
10.6235,0.990921,0
10.6374,0.982883,0
10.6514,0.942813,0
10.6653,0.953206,0
10.6792,0.958353,0
10.6931,0.954096,0
10.707,0.989917,0
10.7209,0.980633,0
10.7347,0.973384,0
10.7486,0.99138,0
10.7624,0.961317,0
10.7762,0.988896,0
10.79,0.973365,0
10.8038,0.952535,0
10.8176,1.005053,0
10.8314,0.997716,0
10.8451,1.012589,0
10.8588,0.945666,0
10.8726,0.995964,0
10.8863,0.969594,0
10.9,1.000803,0
10.9137,0.97,0
10.9274,0.979757,0
10.941,1.004152,0
10.9547,0.969039,0
10.9683,0.983481,0
10.9819,0.965953,0
10.9955,0.974094,0
11.0091,0.971845,0
11.0227,0.970975,0
11.0363,1.001296,0
11.0498,0.993752,0
11.0634,0.969989,0
11.0769,1.0115,0
11.0904,1.018681,0
11.1039,0.967948,0
11.1174,0.995707,0
11.1309,0.997028,0
11.1444,1.038955,0
11.1578,1.00395,0
11.1713,0.99317,0
11.1847,0.969005,0
11.1981,0.986145,0
11.2115,0.994651,0
11.2249,1.003617,0
11.2383,0.988138,0
11.2516,0.985103,0
11.265,1.029668,0
11.2783,0.982793,0
11.2916,0.985239,0
11.3049,0.991916,0
11.3182,1.022776,0
11.3315,0.979343,0
11.3447,0.974887,0
11.358,0.988636,0
11.3712,1.001543,0
11.3844,0.99988,0
11.3977,0.957688,0
11.4109,1.016025,0
11.424,0.971193,0
11.4372,0.980264,0
11.4504,0.976407,0
11.4635,0.976609,0
11.4766,1.002446,0
11.4897,0.973078,0
11.5028,1.001652,0
11.5159,1.031467,0
11.529,1.001801,0
11.5421,0.989883,0
11.5551,1.023761,0
11.5681,1.01902,0
11.5811,1.01959,0
11.5942,0.987929,0
11.6071,1.002823,0
11.6201,0.991961,0
11.6331,1.032294,0
11.646,1.023143,0
11.659,0.989259,0
11.6719,1.057341,0
11.6848,0.992924,0
11.6977,1.008009,0
11.7106,1.013328,0
11.7234,1.024595,0
11.7363,1.048815,0
11.7491,1.019864,0
11.7619,0.999023,0
11.7747,1.040744,0
11.7875,1.000745,0
11.8003,1.057325,0
11.8131,1.015248,0
11.8258,1.028215,0
11.8386,1.04669,0
11.8513,1.033409,0
11.864,0.997792,0
11.8767,1.012072,0
11.8894,1.023706,0
11.9021,1.040936,0
11.9147,1.046013,0
11.9274,1.040388,0
11.94,1.056343,0
11.9526,1.036472,0
11.9652,1.035653,0
11.9778,1.018596,0
11.9903,1.043114,0
12.0029,1.036698,0
12.0154,1.024867,0
12.028,1.04359,0
12.0405,1.06457,0
12.053,1.034019,0
12.0655,1.028588,0
12.0779,1.03001,0
12.0904,1.039366,0
12.1028,1.075845,0
12.1152,1.063533,0
12.1277,1.047439,0
12.14,1.062632,0
12.1524,1.056641,0
12.1648,1.054834,0
12.1772,1.071568,0
12.1895,1.056973,0
12.2018,1.054786,0
12.2141,1.024689,0
12.2264,1.088537,0
12.2387,1.095756,0
12.251,1.114384,0
12.2632,1.089604,0
12.2755,1.059882,0
12.2877,1.056718,0
12.2999,1.11804,0
12.3121,1.043653,0
12.3243,1.053902,0
12.3364,1.068369,0
12.3486,1.085597,0
12.3607,1.091851,0
12.3728,1.051898,0
12.3849,1.095058,0
12.397,1.073068,0
12.4091,1.057732,0
12.4212,1.063308,0
12.4332,1.054318,0
12.4453,1.084093,0
12.4573,1.080573,0
12.4693,1.070468,0
12.4813,1.061236,0
12.4932,1.093431,0
12.5052,1.054696,0
12.5171,1.060721,0
12.5291,1.113499,0
12.541,1.112936,0
12.5529,1.025959,0
12.5648,1.030707,0
12.5766,1.062836,0
12.5885,1.041272,0
12.6003,1.015531,0
12.6122,1.011427,0
12.624,1.032905,0
12.6358,1.057855,0
12.6475,1.063255,0
12.6593,1.07503,0
12.6711,1.06204,0
12.6828,1.007136,0
12.6945,1.02592,0
12.7062,1.006174,0
12.7179,1.046181,0
12.7296,1.028899,0
12.7412,1.006298,0
12.7529,0.987467,0
12.7645,1.026769,0
12.7761,1.002032,0
12.7877,1.000301,0
12.7993,0.994818,0
12.8109,1.017909,0
12.8224,0.984079,0
12.834,0.981286,0
12.8455,0.977975,0
12.857,0.991971,0
12.8685,0.984122,0
12.88,1.010051,0
12.8915,0.959138,0
12.9029,0.997934,0
12.9143,0.993046,0
12.9258,0.950362,0
12.9372,0.977652,0
12.9485,0.973219,0
12.9599,0.980908,0
12.9713,0.985724,0
12.9826,0.969409,0
12.9939,0.986392,0
13.0052,0.97426,0
13.0165,0.945662,0
13.0278,0.985196,0
13.0391,1.000974,0
13.0503,0.953115,0
13.0616,0.948552,0
13.0728,0.964356,0
13.084,1.018299,0
13.0952,0.966956,0
13.1063,0.991046,0
13.1175,1.00117,0
13.1286,0.974473,0
13.1398,0.993451,0
13.1509,0.988096,0
13.162,0.915766,0
13.1731,0.949989,0
13.1841,0.968934,0
13.1952,0.991908,0
13.2062,0.94073,0
13.2172,0.952028,0
13.2282,0.923026,0
13.2392,0.943098,0
13.2502,0.948856,0
13.2611,0.946354,0
13.2721,0.960665,0
13.283,0.965166,0
13.2939,0.9229,0
13.3048,0.963229,0
13.3157,0.876868,0
13.3265,0.935542,0
13.3374,0.921738,0
13.3482,0.911196,0
13.359,0.937079,0
13.3698,0.896983,0
13.3806,0.911365,0
13.3913,0.899581,0
13.4021,0.914304,0
13.4128,0.850635,0
13.4235,0.894548,0
13.4343,0.862567,0
13.4449,0.907139,0
13.4556,0.940264,0
13.4663,0.90633,0
13.4769,0.919725,0
13.4875,0.927308,0
13.4981,0.943314,0
13.5087,0.940452,0
13.5193,0.970441,0
13.5299,0.97686,0
13.5404,0.947485,0
13.5509,0.925464,0
13.5614,0.950092,0
13.5719,0.915054,0
13.5824,0.908701,0
13.5929,0.978864,0
13.6033,0.930081,0
13.6138,0.944533,0
13.6242,0.940753,0
13.6346,0.925058,0
13.645,0.969731,0
13.6553,0.942288,0
13.6657,0.877239,0
13.676,0.950832,0
13.6863,0.99852,0
13.6966,0.944032,0
13.7069,0.950732,0
13.7172,0.955383,0
13.7274,0.905679,0
13.7377,0.985747,0
13.7479,0.945958,0
13.7581,0.916325,0
13.7683,0.933818,0
13.7785,0.927879,0
13.7886,0.930235,0
13.7988,0.937212,0
13.8089,0.966185,0
13.819,0.917808,0
13.8291,0.928095,0
13.8392,0.955267,0
13.8492,0.927471,0
13.8593,0.943496,0
13.8693,0.946141,0
13.8793,0.931782,0
13.8893,0.969046,0
13.8993,0.978759,0
13.9093,1.000638,0
13.9192,0.954753,0
13.9291,0.930281,0
13.9391,0.954298,0
13.9489,0.957001,0
13.9588,0.990828,0
13.9687,0.98857,0
13.9785,0.928387,0
13.9884,0.978298,0
13.9982,1.022187,0
14.008,0.94561,0
14.0178,0.957002,0
14.0275,0.992106,0
14.0373,1.050015,0
14.047,1.00085,0
14.0567,0.979214,0
14.0664,0.997673,0
14.0761,1.017558,0
14.0858,0.964286,0
14.0954,1.027339,0
14.1051,0.995192,0
14.1147,0.984027,0
14.1243,1.042944,0
14.1339,1.043311,0
14.1434,0.985223,0
14.153,0.988117,0
14.1625,1.089841,0
14.172,1.04737,0
14.1815,1.025999,0
14.191,1.017798,0
14.2005,0.965492,0
14.2099,0.981043,0
14.2194,0.988027,0
14.2288,0.995647,0
14.2382,0.980332,0
14.2476,1.050898,0
14.2569,1.021273,0
14.2663,0.953443,0
14.2756,1.01173,0
14.2849,0.996049,0
14.2942,0.978373,0
14.3035,0.992755,0
14.3128,1.055593,0
14.322,0.982461,0
14.3313,1.040786,0
14.3405,1.006372,0
14.3497,1.029043,0
14.3589,0.986452,0
14.368,1.029357,0
14.3772,1.004964,0
14.3863,1.041045,0
14.3954,0.921342,0
14.4045,0.97024,0
14.4136,1.01447,0
14.4227,0.963247,0
14.4317,1.02591,0
14.4407,1.023252,0
14.4498,1.020408,0
14.4588,1.015353,0
14.4677,0.97375,0
14.4767,1.018067,0
14.4856,0.978819,0
14.4946,1.074033,0
14.5035,1.104261,0
14.5124,1.070782,0
14.5213,1.066236,0
14.5301,1.085144,0
14.539,1.102098,0
14.5478,1.058537,0
14.5566,1.089413,0
14.5654,1.122285,0
14.5742,1.08718,0
14.5829,1.099129,0
14.5917,1.087727,0
14.6004,1.087871,0
14.6091,1.135332,0
14.6178,1.044155,0
14.6265,1.049635,0
14.6351,1.052927,0
14.6438,1.041575,0
14.6524,1.065409,0
14.661,1.0729,0
14.6696,1.057728,0
14.6781,1.06915,0
14.6867,1.031946,0
14.6952,1.034569,0
14.7037,1.00256,0
14.7122,0.990198,0
14.7207,1.0098,0
14.7292,0.969051,0
14.7376,1.022542,0
14.7461,1.031559,0
14.7545,1.059388,0
14.7629,1.122817,0
14.7713,1.031619,0
14.7796,1.03766,0
14.788,1.045455,0
14.7963,1.036799,0
14.8046,1.00724,0
14.8129,0.990236,0
14.8212,1.089672,0
14.8294,1.104675,0
14.8377,1.043217,0
14.8459,1.050613,0
14.8541,1.13036,0
14.8623,1.069269,0
14.8705,1.116319,0
14.8786,1.030084,0
14.8868,1.075767,0
14.8949,1.052468,0
14.903,1.040464,0
14.9111,1.074486,0
14.9191,1.042834,0
14.9272,1.121796,0
14.9352,1.065494,0
14.9432,1.063763,0
14.9512,1.047015,0
14.9592,1.040131,0
14.9672,1.03703,0
14.9751,1.008554,0
14.9831,0.984578,0
14.991,1.067165,0
14.9989,1.057346,0
15.0067,1.007714,0
15.0146,0.997346,0
15.0224,1.064217,0
15.0303,0.983976,0
15.0381,1.08892,0
15.0459,1.033018,0
15.0536,1.030904,0
15.0614,1.129172,0
15.0691,1.008266,0
15.0768,0.997101,0
15.0845,0.994953,0
15.0922,1.02283,0
15.0999,1.024513,0
15.1075,1.071018,0
15.1151,1.087706,0
15.1228,1.232995,0
15.1303,1.080078,0
15.1379,1.047727,0
15.1455,1.04109,0
15.153,0.968263,0
15.1605,1.054224,0
15.168,1.00905,0
15.1755,1.042161,0
15.183,1.105571,0
15.1905,1.070488,0
15.1979,1.085144,0
15.2053,1.001819,0
15.2127,1.0115,0
15.2201,1.047544,0
15.2274,1.071079,0
15.2348,1.032001,0
15.2421,1.035447,0
15.2494,1.021413,0
15.2567,1.050428,0
15.264,1.055802,0
15.2712,1.025607,0
15.2785,1.014195,0
15.2857,1.014254,0
15.2929,1.059609,0
15.3001,0.979432,0
15.3073,1.088579,0
15.3144,0.960873,0
15.3215,1.026508,0
15.3286,1.059285,0
15.3357,0.966801,0
15.3428,0.960823,0
15.3499,1.014573,0
15.3569,1.015172,0
15.3639,1.012371,0
15.3709,0.940929,0
15.3779,0.995188,0
15.3849,0.939832,0
15.3919,0.952675,0
15.3988,0.948041,0
15.4057,0.974116,0
15.4126,0.991067,0
15.4195,0.907325,0
15.4263,1.000402,0
15.4332,0.937721,0
15.44,1.005682,0
15.4468,0.990651,0
15.4536,1.052832,0
15.4604,1.007218,0
15.4671,0.952944,0
15.4739,0.986982,0
15.4806,1.046265,0
15.4873,0.946372,0
15.494,0.993621,0
15.5006,0.972254,0
15.5073,0.980408,0
15.5139,0.919538,0
15.5205,0.94395,0
15.5271,0.939242,0
15.5337,1.001223,0
15.5402,0.967541,0
15.5468,0.975948,0
15.5533,0.952316,0
15.5598,0.963918,0
15.5663,0.970712,0
15.5727,0.946709,0
15.5792,0.938738,0
15.5856,0.979514,0
15.592,0.954719,0
15.5984,0.919928,0
15.6048,0.954579,0
15.6111,0.996581,0
15.6175,0.960871,0
15.6238,1.021693,0
15.6301,0.987012,0
15.6364,0.92106,0
15.6426,1.012831,0
15.6489,0.954671,0
15.6551,0.950997,0
15.6613,0.898542,0
15.6675,1.053871,0
15.6737,0.966251,0
15.6798,0.970048,0
15.6859,1.02647,0
15.6921,0.992566,0
15.6982,1.056504,0
15.7042,0.987275,0
15.7103,0.974752,0
15.7163,0.984577,0
15.7224,0.940701,0
15.7284,1.018873,0
15.7344,1.074207,0
15.7403,1.054193,0
15.7463,1.039795,0
15.7522,1.076292,0
15.7581,0.968958,0
15.764,0.931669,0
15.7699,1.063475,0
15.7758,0.979485,0
15.7816,1.02244,0
15.7874,0.943866,0
15.7932,1.014792,0
15.799,1.00589,0
15.8048,0.945068,0
15.8105,1.041757,0
15.8163,0.971206,0
15.822,0.952901,0
15.8277,0.995854,0
15.8334,0.902812,0
15.839,0.915556,0
15.8447,0.978431,0
15.8503,0.971064,0
15.8559,0.951333,0
15.8615,0.987931,0
15.867,0.991148,0
15.8726,0.965832,0
15.8781,0.964618,0
15.8836,0.968469,0
15.8891,1.003681,0
15.8946,0.984267,0
15.9,1.031647,0
15.9055,1.008985,0
15.9109,1.020997,0
15.9163,0.995649,0
15.9217,0.970155,0
15.927,0.91724,0
15.9324,0.983474,0
15.9377,0.946722,0
15.943,0.960467,0
15.9483,1.001885,0
15.9535,0.999596,0
15.9588,0.99938,0
15.964,1.025465,0
15.9692,0.998838,0
15.9744,0.968304,0
15.9796,1.038337,0
15.9848,1.026893,0
15.9899,1.026349,0
15.995,1.030891,0
16.0001,1.025637,0
16.0052,0.90166,0
16.0103,0.958179,0
16.0153,0.975441,0
16.0203,1.010803,0
16.0253,1.030633,0
16.0303,0.95503,0
16.0353,0.936239,0
16.0403,1.007293,0
16.0452,0.938834,0
16.0501,0.973519,0
16.055,1.000159,0
16.0599,0.95916,0
16.0647,0.958962,0
16.0696,0.908554,0
16.0744,0.973412,0
16.0792,0.988527,0
16.084,1.034846,0
16.0887,0.981149,0
16.0935,0.98973,0
16.0982,0.939226,0
16.1029,0.981927,0
16.1076,0.92233,0
16.1123,0.979645,0
16.1169,0.972202,0
16.1216,0.956922,0
16.1262,0.925624,0
16.1308,0.996816,0
16.1354,0.930066,0
16.1399,0.966183,0
16.1444,0.973203,0
16.149,0.965105,0
16.1535,0.929955,0
16.158,0.970126,0
16.1624,0.950076,0
16.1669,0.961984,0
16.1713,0.940582,0
16.1757,0.962952,0
16.1801,1.025732,0
16.1845,0.924741,0
16.1888,0.94399,0
16.1931,0.997622,0
16.1974,1.018868,0
16.2017,0.969371,0
16.206,1.026458,0
16.2103,1.032794,0
16.2145,0.988869,0
16.2187,1.007245,0
16.2229,0.977278,0
16.2271,0.99405,0
16.2313,0.940083,0
16.2354,0.965216,0
16.2395,0.944727,0
16.2436,0.966267,0
16.2477,0.97667,0
16.2518,0.968573,0
16.2558,0.95992,0
16.2599,0.997818,0
16.2639,0.953963,0
16.2679,1.028082,0
16.2719,0.972774,0
16.2758,0.935283,0
16.2797,0.917192,0
16.2837,0.954168,0
16.2876,0.911691,0
16.2914,0.906871,0
16.2953,0.928839,0
16.2991,0.948523,0
16.303,0.970021,0
16.3068,0.906639,0
16.3105,0.971998,0
16.3143,0.848085,0
16.3181,0.89193,0
16.3218,0.927674,0
16.3255,0.908788,0
16.3292,0.932303,0
16.3328,0.913603,0
16.3365,0.876691,0
16.3401,0.922614,0
16.3413,0.927425,0