File: data/xrd_measurements/Li3PS4/F_of_Q_orig.csv
,Q,F,dF
0,-0.537148,-0.192282,0
6,-0.518638,-0.19752,0
12,-0.500129,-0.200077,0
18,-0.48162,-0.202114,0
24,-0.463112,-0.204323,0
30,-0.444605,-0.204673,0
36,-0.426098,-0.203866,0
42,-0.407592,-0.209422,0
48,-0.389087,-0.211117,0
54,-0.370582,-0.206863,0
60,-0.352078,-0.208049,0
66,-0.333574,-0.210053,0
72,-0.315072,-0.205008,0
78,-0.29657,-0.20491,0
84,-0.278068,-0.205305,0
90,-0.259568,-0.200453,0
96,-0.241068,-0.198841,0
102,-0.22257,-0.191164,0
108,-0.204072,-0.1855,0
114,-0.185575,-0.181068,0
120,-0.167079,-0.171129,0
126,-0.148584,-0.161737,0
132,-0.130089,-0.150038,0
138,-0.111596,-0.139396,0
144,-0.0931037,-0.117623,0
150,-0.0746123,-0.104366,0
156,-0.056122,-0.083598,0
162,-0.0376327,-0.060626,0
168,-0.0191445,-0.029555,0
174,-0.000657308,0.00877,0
180,0.0178288,0.044615,0
186,0.0363137,0.090316,0
192,0.0547975,0.142236,0
198,0.0732802,0.201612,0
204,0.0917616,0.266081,0
210,0.110242,0.334938,0
216,0.128721,0.408248,0
222,0.147199,0.486311,0
228,0.165675,0.56514,0
234,0.184151,0.639184,0
240,0.202625,0.708401,0
246,0.221097,0.767284,0
252,0.239569,0.816221,0
258,0.258039,0.845174,0
264,0.276507,0.857834,0
270,0.294974,0.854134,0
276,0.31344,0.836433,0
282,0.331905,0.80528,0
288,0.350367,0.773741,0
294,0.368829,0.7288,0
300,0.387289,0.679025,0
306,0.405747,0.630018,0
312,0.424204,0.582097,0
318,0.442659,0.542548,0
324,0.461113,0.49765,0
330,0.479565,0.464374,0
336,0.498015,0.424301,0
342,0.5164642,0.397831,0
348,0.534911,0.370152,0
354,0.553357,0.354542,0
360,0.571801,0.33602,0
366,0.590243,0.323101,0
372,0.608683,0.317063,0
378,0.627121,0.312833,0
384,0.645558,0.315982,0
390,0.663993,0.320968,0
396,0.682426,0.33044,0
402,0.700858,0.340765,0
408,0.719287,0.360494,0
414,0.737715,0.380995,0
420,0.75614,0.410942,0
426,0.774564,0.44334,0
432,0.792986,0.47912,0
438,0.811405,0.519741,0
444,0.829823,0.581786,0
450,0.848239,0.636019,0
456,0.866653,0.707226,0
462,0.885064,0.815314,0
468,0.903474,0.906525,0
474,0.921882,0.970164,0
480,0.940287,1.064967,0
486,0.95869,1.195531,0
492,0.977092,1.320192,0
498,0.995491,1.461428,0
504,1.01389,1.589325,0
510,1.03228,1.712764,0
516,1.05067,1.811081,0
522,1.06906,1.884334,0
528,1.08745,1.928612,0
534,1.10584,1.916418,0
540,1.12422,1.871091,0
546,1.1426,1.784908,0
552,1.16098,1.682423,0
558,1.17936,1.567155,0
564,1.19773,1.45086,0
570,1.2161,1.32129,0
576,1.23447,1.210489,0
582,1.25284,1.104806,0
588,1.2712,1.014109,0
594,1.28956,0.948489,0
600,1.30792,0.879805,0
606,1.32628,0.820074,0
612,1.34463,0.768563,0
618,1.36298,0.733507,0
624,1.38133,0.698291,0
630,1.39968,0.668146,0
636,1.41802,0.639481,0
642,1.43636,0.626318,0
648,1.4547,0.607901,0
654,1.47304,0.594678,0
660,1.49137,0.582875,0
666,1.5097,0.576686,0
672,1.52803,0.568237,0
678,1.54635,0.570916,0
684,1.56467,0.564953,0
690,1.58299,0.571547,0
696,1.60131,0.577587,0
702,1.61962,0.581014,0
708,1.63793,0.587232,0
714,1.65624,0.599389,0
720,1.67455,0.601615,0
726,1.69285,0.616906,0
732,1.71115,0.618943,0
738,1.72944,0.631662,0
744,1.74773,0.638615,0
750,1.76602,0.653022,0
756,1.78431,0.656402,0
762,1.80259,0.667753,0
768,1.82088,0.677357,0
774,1.83915,0.696424,0
780,1.85743,0.712292,0
786,1.8757,0.724548,0
792,1.89397,0.73296,0
798,1.91223,0.748598,0
804,1.93049,0.762639,0
810,1.94875,0.778174,0
816,1.96701,0.792901,0
822,1.98526,0.80976,0
828,2.00351,0.826367,0
834,2.02175,0.841814,0
840,2.04,0.853859,0
846,2.05823,0.867958,0
852,2.07647,0.89894,0
858,2.0947,0.93426,0
864,2.11293,0.92874,0
870,2.13116,0.921036,0
876,2.14938,0.924678,0
882,2.1676,0.931039,0
888,2.18581,0.936904,0
894,2.20402,0.939056,0
900,2.22223,0.953199,0
906,2.24043,0.950969,0
912,2.25864,0.954263,0
918,2.27683,0.961795,0
924,2.29503,0.967945,0
930,2.31322,0.976867,0
936,2.3314,0.995668,0
942,2.34959,1.011386,0
948,2.36776,1.029588,0
954,2.38594,1.049591,0
960,2.40411,1.074667,0
966,2.42228,1.094402,0
972,2.44044,1.123657,0
978,2.4586,1.150163,0
984,2.47676,1.173546,0
990,2.49491,1.199373,0
996,2.51306,1.232167,0
1002,2.53121,1.246006,0
1008,2.54935,1.26448,0
1014,2.56749,1.288097,0
1020,2.58562,1.309279,0
1026,2.60375,1.322997,0
1032,2.62188,1.356609,0
1038,2.64,1.379656,0
1044,2.65811,1.37276,0
1050,2.67623,1.358156,0
1056,2.69434,1.365255,0
1062,2.71244,1.3674,0
1068,2.73054,1.364322,0
1074,2.74864,1.361507,0
1080,2.76674,1.366865,0
1086,2.78482,1.360814,0
1092,2.80291,1.35814,0
1098,2.82099,1.353834,0
1104,2.83907,1.349726,0
1110,2.85714,1.341386,0
1116,2.87521,1.344341,0
1122,2.89327,1.342846,0
1128,2.91133,1.344643,0
1134,2.92939,1.336749,0
1140,2.94744,1.336938,0
1146,2.96548,1.333192,0
1152,2.98353,1.337774,0
1158,3.00156,1.336411,0
1164,3.0196,1.332827,0
1170,3.03763,1.326753,0
1176,3.05565,1.324117,0
1182,3.07367,1.329067,0
1188,3.09169,1.315287,0
1194,3.1097,1.312845,0
1200,3.12771,1.307991,0
1206,3.14571,1.295399,0
1212,3.16371,1.278708,0
1218,3.1817,1.263461,0
1224,3.19969,1.248055,0
1230,3.21767,1.228076,0
1236,3.23565,1.220883,0
1242,3.25363,1.195781,0
1248,3.2716,1.171411,0
1254,3.28956,1.154955,0
1260,3.30752,1.13805,0
1266,3.32548,1.109312,0
1272,3.34343,1.089748,0
1278,3.36138,1.067792,0
1284,3.37932,1.050034,0
1290,3.39726,1.036014,0
1296,3.41519,1.010409,0
1302,3.43311,0.994604,0
1308,3.45104,0.969057,0
1314,3.46895,0.960072,0
1320,3.48687,0.938553,0
1326,3.50477,0.931949,0
1332,3.52268,0.922786,0
1338,3.54058,0.912363,0
1344,3.55847,0.899487,0
1350,3.57636,0.892342,0
1356,3.59424,0.876703,0
1362,3.61212,0.871828,0
1368,3.62999,0.874785,0
1374,3.64786,0.859933,0
1380,3.66572,0.855057,0
1386,3.68358,0.855064,0
1392,3.70143,0.847756,0
1398,3.71928,0.847657,0
1404,3.73712,0.850153,0
1410,3.75495,0.841984,0
1416,3.77279,0.855604,0
1422,3.79061,0.852831,0
1428,3.80843,0.849811,0
1434,3.82625,0.83572,0
1440,3.84406,0.8386,0
1446,3.86186,0.839908,0
1452,3.87966,0.836388,0
1458,3.89746,0.843859,0
1464,3.91525,0.835887,0
1470,3.93303,0.825198,0
1476,3.95081,0.819848,0
1482,3.96858,0.826781,0
1488,3.98635,0.824762,0
1494,4.00411,0.816735,0
1500,4.02187,0.825891,0
1506,4.03962,0.812327,0
1512,4.05737,0.80974,0
1518,4.0751,0.803616,0
1524,4.09284,0.815423,0
1530,4.11057,0.807196,0
1536,4.12829,0.801478,0
1542,4.14601,0.787473,0
1548,4.16372,0.796272,0
1554,4.18143,0.798362,0
1560,4.19913,0.795082,0
1566,4.21682,0.780618,0
1572,4.23451,0.7794,0
1578,4.25219,0.780826,0
1584,4.26987,0.77888,0
1590,4.28754,0.77599,0
1596,4.30521,0.789228,0
1602,4.32287,0.777444,0
1608,4.34052,0.786288,0
1614,4.35817,0.805192,0
1620,4.37582,0.791951,0
1626,4.39345,0.799668,0
1632,4.41108,0.789735,0
1638,4.42871,0.803626,0
1644,4.44633,0.798362,0
1650,4.46394,0.818299,0
1656,4.48155,0.817144,0
1662,4.49915,0.832036,0
1668,4.51674,0.837763,0
1674,4.53433,0.848286,0
1680,4.55191,0.849629,0
1686,4.56949,0.866588,0
1692,4.58706,0.867866,0
1698,4.60463,0.905078,0
1704,4.62218,0.891185,0
1710,4.63974,0.900557,0
1716,4.65728,0.910673,0
1722,4.67482,0.917534,0
1728,4.69236,0.947226,0
1734,4.70988,0.954306,0
1740,4.7274,0.94134,0
1746,4.74492,0.954984,0
1752,4.76243,0.974274,0
1758,4.77993,0.974401,0
1764,4.79743,0.991695,0
1770,4.81492,0.991219,0
1776,4.8324,0.997609,0
1782,4.84987,1.009895,0
1788,4.86735,1.039502,0
1794,4.88481,1.019968,0
1800,4.90227,1.039836,0
1806,4.91972,1.043048,0
1812,4.93716,1.040409,0
1818,4.9546,1.061673,0
1824,4.97203,1.060717,0
1830,4.98946,1.075944,0
1836,5.00687,1.079608,0
1842,5.02429,1.083226,0
1848,5.04169,1.090034,0
1854,5.05909,1.09834,0
1860,5.07648,1.108013,0
1866,5.09387,1.110293,0
1872,5.11124,1.106957,0
1878,5.12862,1.119778,0
1884,5.14598,1.116319,0
1890,5.16334,1.118872,0
1896,5.18069,1.126607,0
1902,5.19804,1.140276,0
1908,5.21537,1.132788,0
1914,5.23271,1.135353,0
1920,5.25003,1.151464,0
1926,5.26735,1.127007,0
1932,5.28466,1.135657,0
1938,5.30196,1.139186,0
1944,5.31926,1.135478,0
1950,5.33655,1.13509,0
1956,5.35383,1.132286,0
1962,5.37111,1.133178,0
1968,5.38838,1.126558,0
1974,5.40564,1.125868,0
1980,5.42289,1.119175,0
1986,5.44014,1.117993,0
1992,5.45738,1.098524,0
1998,5.47461,1.117998,0
2004,5.49184,1.119848,0
2010,5.50906,1.110917,0
2016,5.52627,1.104516,0
2022,5.54348,1.08663,0
2028,5.56068,1.084281,0
2034,5.57787,1.097383,0
2040,5.59505,1.082431,0
2046,5.61223,1.07561,0
2052,5.6294,1.071483,0
2058,5.64656,1.062143,0
2064,5.66371,1.050207,0
2070,5.68086,1.055425,0
2076,5.698,1.051111,0
2082,5.71513,1.041812,0
2088,5.73226,1.044014,0
2094,5.74938,1.029919,0
2100,5.76649,1.039252,0
2106,5.78359,1.02563,0
2112,5.80068,1.018768,0
2118,5.81777,1.026226,0
2124,5.83485,1.02806,0
2130,5.85193,1.013379,0
2136,5.86899,1.009979,0
2142,5.88605,1.0051,0
2148,5.9031,1.012674,0
2154,5.92014,1.010678,0
2160,5.93718,1.000048,0
2166,5.95421,0.996847,0
2172,5.97123,1.014678,0
2178,5.98824,1.00952,0
2184,6.00525,1.005742,0
2190,6.02224,1.015272,0
2196,6.03923,1.007018,0
2202,6.05621,1.007979,0
2208,6.07319,1.000191,0
2214,6.09015,1.008824,0
2220,6.10711,1.01071,0
2226,6.12406,1.000359,0
2232,6.14101,1.01318,0
2238,6.15794,0.999149,0
2244,6.17487,0.985779,0
2250,6.19179,1.018358,0
2256,6.2087,1.010584,0
2262,6.2256,1.00173,0
2268,6.2425,1.013505,0
2274,6.25939,1.00932,0
2280,6.27627,1.00962,0
2286,6.29314,1.003903,0
2292,6.31,1.025557,0
2298,6.32686,1.016361,0
2304,6.3437,1.028057,0
2310,6.36054,1.019971,0
2316,6.37738,1.014479,0
2322,6.3942,1.022464,0
2328,6.41101,1.029238,0
2334,6.42782,1.015718,0
2340,6.44462,1.025803,0
2346,6.46141,1.019609,0
2352,6.47819,1.022266,0
2358,6.49497,1.027467,0
2364,6.51174,1.024728,0
2370,6.52849,1.023971,0
2376,6.54524,1.032588,0
2382,6.56198,1.031386,0
2388,6.57872,1.036218,0
2394,6.59544,1.040975,0
2400,6.61216,1.035907,0
2406,6.62887,1.032197,0
2412,6.64557,1.037243,0
2418,6.66226,1.041378,0
2424,6.67894,1.040471,0
2430,6.69562,1.041081,0
2436,6.71228,1.052913,0
2442,6.72894,1.034184,0
2448,6.74559,1.042231,0
2454,6.76223,1.038495,0
2460,6.77886,1.041466,0
2466,6.79549,1.038571,0
2472,6.8121,1.040456,0
2478,6.82871,1.052553,0
2484,6.84531,1.039753,0
2490,6.8619,1.039092,0
2496,6.87848,1.033721,0
2502,6.89505,1.038243,0
2508,6.91161,1.031381,0
2514,6.92817,1.018849,0
2520,6.94472,1.019483,0
2526,6.96125,1.029678,0
2532,6.97778,1.025811,0
2538,6.9943,1.009729,0
2544,7.01081,1.028415,0
2550,7.02732,1.019194,0
2556,7.04381,1.022389,0
2562,7.06029,1.008399,0
2568,7.07677,1.005904,0
2574,7.09324,1.004546,0
2580,7.1097,1.010538,0
2586,7.12614,0.997532,0
2592,7.14258,1.002299,0
2598,7.15902,0.986199,0
2604,7.17544,0.976888,0
2610,7.19185,0.992251,0
2616,7.20826,0.988448,0
2622,7.22465,0.976883,0
2628,7.24104,0.963071,0
2634,7.25742,0.977592,0
2640,7.27379,0.955606,0
2646,7.29015,0.944667,0
2652,7.3065,0.957946,0
2658,7.32284,0.945662,0
2664,7.33917,0.952863,0
2670,7.35549,0.9534,0
2676,7.37181,0.928292,0
2682,7.38811,0.930494,0
2688,7.40441,0.925197,0
2694,7.42069,0.93296,0
2700,7.43697,0.919106,0
2706,7.45324,0.912385,0
2712,7.4695,0.917606,0
2718,7.48574,0.909596,0
2724,7.50198,0.911604,0
2730,7.51821,0.896733,0
2736,7.53444,0.895567,0
2742,7.55065,0.897488,0
2748,7.56685,0.884932,0
2754,7.58304,0.888685,0
2760,7.59923,0.889822,0
2766,7.6154,0.891018,0
2772,7.63157,0.893499,0
2778,7.64772,0.876079,0
2784,7.66387,0.867618,0
2790,7.68,0.876798,0
2796,7.69613,0.868289,0
2802,7.71225,0.885579,0
2808,7.72836,0.879054,0
2814,7.74445,0.861347,0
2820,7.76054,0.869087,0
2826,7.77662,0.880409,0
2832,7.79269,0.869751,0
2838,7.80875,0.871505,0
2844,7.8248,0.87926,0
2850,7.84084,0.860872,0
2856,7.85687,0.876186,0
2862,7.87289,0.871616,0
2868,7.8889,0.874991,0
2874,7.9049,0.888009,0
2880,7.9209,0.882854,0
2886,7.93688,0.889909,0
2892,7.95285,0.901826,0
2898,7.96881,0.887677,0
2904,7.98477,0.899424,0
2910,8.00071,0.914653,0
2916,8.01664,0.899772,0
2922,8.03256,0.900339,0
2928,8.04848,0.897171,0
2934,8.06438,0.910494,0
2940,8.08027,0.907087,0
2946,8.09616,0.92209,0
2952,8.11203,0.926104,0
2958,8.12789,0.91819,0
2964,8.14375,0.912256,0
2970,8.15959,0.932434,0
2976,8.17542,0.934487,0
2982,8.19124,0.948018,0
2988,8.20706,0.949015,0
2994,8.22286,0.958392,0
3000,8.23865,0.969314,0
3006,8.25444,0.982282,0
3012,8.27021,0.968621,0
3018,8.28597,0.987225,0
3024,8.30172,1.003712,0
3030,8.31746,0.983014,0
3036,8.3332,1.009199,0
3042,8.34892,1.012886,0
3048,8.36463,1.018516,0
3054,8.38033,1.004747,0
3060,8.39602,1.035771,0
3066,8.4117,1.037853,0
3072,8.42737,1.037137,0
3078,8.44303,1.059643,0
3084,8.45868,1.038145,0
3090,8.47432,1.046155,0
3096,8.48995,1.054375,0
3102,8.50557,1.072634,0
3108,8.52117,1.059821,0
3114,8.53677,1.084575,0
3120,8.55236,1.090881,0
3126,8.56793,1.094093,0
3132,8.5835,1.084283,0
3138,8.59905,1.088636,0
3144,8.6146,1.110318,0
3150,8.63013,1.105896,0
3156,8.64566,1.080065,0
3162,8.66117,1.098768,0
3168,8.67667,1.119885,0
3174,8.69216,1.090374,0
3180,8.70765,1.126163,0
3186,8.72312,1.114837,0
3192,8.73858,1.122096,0
3198,8.75403,1.133797,0
3204,8.76946,1.114078,0
3210,8.78489,1.108364,0
3216,8.80031,1.125414,0
3222,8.81572,1.124853,0
3228,8.83111,1.131767,0
3234,8.8465,1.13652,0
3240,8.86187,1.149108,0
3246,8.87723,1.131659,0
3252,8.89259,1.149102,0
3258,8.90793,1.127085,0
3264,8.92326,1.153772,0
3270,8.93858,1.131227,0
3276,8.95389,1.159093,0
3282,8.96919,1.136076,0
3288,8.98447,1.127682,0
3294,8.99975,1.138308,0
3300,9.01501,1.116087,0
3306,9.03027,1.123813,0
3312,9.04551,1.109637,0
3318,9.06074,1.12693,0
3324,9.07597,1.108753,0
3330,9.09118,1.135524,0
3336,9.10637,1.115462,0
3342,9.12156,1.117204,0
3348,9.13674,1.107568,0
3354,9.1519,1.105964,0
3360,9.16706,1.097279,0
3366,9.1822,1.085161,0
3372,9.19734,1.084455,0
3378,9.21246,1.075227,0
3384,9.22757,1.075352,0
3390,9.24266,1.085252,0
3396,9.25775,1.095903,0
3402,9.27283,1.088015,0
3408,9.28789,1.072624,0
3414,9.30295,1.048937,0
3420,9.31799,1.062157,0
3426,9.33302,1.051268,0
3432,9.34804,1.05237,0
3438,9.36305,1.058221,0
3444,9.37805,1.048455,0
3450,9.39303,1.048606,0
3456,9.40801,1.044711,0
3462,9.42297,1.021807,0
3468,9.43792,1.020197,0
3474,9.45286,1.006059,0
3480,9.46779,1.024773,0
3486,9.48271,1.000755,0
3492,9.49761,0.998743,0
3498,9.5125,0.983995,0
3504,9.52739,0.990215,0
3510,9.54226,1.024263,0
3516,9.55712,0.990517,0
3522,9.57197,0.990853,0
3528,9.5868,0.997029,0
3534,9.60163,0.988162,0
3540,9.61644,0.975267,0
3546,9.63124,0.975598,0
3552,9.64603,0.969237,0
3558,9.66081,0.946756,0
3564,9.67557,0.984971,0
3570,9.69033,0.988625,0
3576,9.70507,0.97389,0
3582,9.7198,0.936866,0
3588,9.73452,0.945496,0
3594,9.74923,0.949402,0
3600,9.76393,0.961478,0
3606,9.77861,0.940319,0
3612,9.79328,0.974374,0
3618,9.80794,0.966534,0
3624,9.82259,0.969378,0
3630,9.83723,0.935358,0
3636,9.85185,0.939367,0
3642,9.86646,0.937455,0
3648,9.88107,0.947258,0
3654,9.89565,0.939899,0
3660,9.91023,0.940425,0
3666,9.9248,0.941249,0
3672,9.93935,0.943462,0
3678,9.95389,0.933948,0
3684,9.96842,0.952289,0
3690,9.98294,0.921162,0
3696,9.99744,0.940441,0
3702,10.0119,0.917339,0
3708,10.0264,0.931786,0
3714,10.0409,0.945181,0
3720,10.0553,0.935388,0
3726,10.0698,0.920222,0
3732,10.0842,0.936886,0
3738,10.0986,0.937574,0
3744,10.113,0.926436,0
3750,10.1274,0.915592,0
3756,10.1418,0.931755,0
3762,10.1562,0.909259,0
3768,10.1706,0.920762,0
3774,10.1849,0.925875,0
3780,10.1992,0.948143,0
3786,10.2136,0.931641,0
3792,10.2279,0.940634,0
3798,10.2422,0.941408,0
3804,10.2565,0.945499,0
3810,10.2707,0.915444,0
3816,10.285,0.943178,0
3822,10.2992,0.943128,0
3828,10.3135,0.939828,0
3834,10.3277,0.935547,0
3840,10.3419,0.944311,0
3846,10.3561,0.949418,0
3852,10.3703,0.992896,0
3858,10.3845,0.978167,0
3864,10.3986,0.969938,0
3870,10.4128,0.944037,0
3876,10.4269,0.948381,0
3882,10.441,0.947712,0
3888,10.4551,0.974313,0
3894,10.4692,0.960302,0
3900,10.4833,0.967588,0
3906,10.4974,0.957255,0
3912,10.5115,0.963636,0
3918,10.5255,0.965708,0
3924,10.5396,0.96518,0
3930,10.5536,0.935579,0
3936,10.5676,0.948939,0
3942,10.5816,1.011687,0
3948,10.5956,0.944125,0
3954,10.6095,0.969937,0
3960,10.6235,0.990921,0
3966,10.6374,0.982883,0
3972,10.6514,0.942813,0
3978,10.6653,0.953206,0
3984,10.6792,0.958353,0
3990,10.6931,0.954096,0
3996,10.707,0.989917,0
4002,10.7209,0.980633,0
4008,10.7347,0.973384,0
4014,10.7486,0.99138,0
4020,10.7624,0.961317,0
4026,10.7762,0.988896,0
4032,10.79,0.973365,0
4038,10.8038,0.952535,0
4044,10.8176,1.005053,0
4050,10.8314,0.997716,0
4056,10.8451,1.012589,0
4062,10.8588,0.945666,0
4068,10.8726,0.995964,0
4074,10.8863,0.969594,0
4080,10.9,1.000803,0
4086,10.9137,0.97,0
4092,10.9274,0.979757,0
4098,10.941,1.004152,0
4104,10.9547,0.969039,0
4110,10.9683,0.983481,0
4116,10.9819,0.965953,0
4122,10.9955,0.974094,0
4128,11.0091,0.971845,0
4134,11.0227,0.970975,0
4140,11.0363,1.001296,0
4146,11.0498,0.993752,0
4152,11.0634,0.969989,0
4158,11.0769,1.0115,0
4164,11.0904,1.018681,0
4170,11.1039,0.967948,0
4176,11.1174,0.995707,0
4182,11.1309,0.997028,0
4188,11.1444,1.038955,0
4194,11.1578,1.00395,0
4200,11.1713,0.99317,0
4206,11.1847,0.969005,0
4212,11.1981,0.986145,0
4218,11.2115,0.994651,0
4224,11.2249,1.003617,0
4230,11.2383,0.988138,0
4236,11.2516,0.985103,0
4242,11.265,1.029668,0
4248,11.2783,0.982793,0
4254,11.2916,0.985239,0
4260,11.3049,0.991916,0
4266,11.3182,1.022776,0
4272,11.3315,0.979343,0
4278,11.3447,0.974887,0
4284,11.358,0.988636,0
4290,11.3712,1.001543,0
4296,11.3844,0.99988,0
4302,11.3977,0.957688,0
4308,11.4109,1.016025,0
4314,11.424,0.971193,0
4320,11.4372,0.980264,0
4326,11.4504,0.976407,0
4332,11.4635,0.976609,0
4338,11.4766,1.002446,0
4344,11.4897,0.973078,0
4350,11.5028,1.001652,0
4356,11.5159,1.031467,0
4362,11.529,1.001801,0
4368,11.5421,0.989883,0
4374,11.5551,1.023761,0
4380,11.5681,1.01902,0
4386,11.5811,1.01959,0
4392,11.5942,0.987929,0
4398,11.6071,1.002823,0
4404,11.6201,0.991961,0
4410,11.6331,1.032294,0
4416,11.646,1.023143,0
4422,11.659,0.989259,0
4428,11.6719,1.057341,0
4434,11.6848,0.992924,0
4440,11.6977,1.008009,0
4446,11.7106,1.013328,0
4452,11.7234,1.024595,0
4458,11.7363,1.048815,0
4464,11.7491,1.019864,0
4470,11.7619,0.999023,0
4476,11.7747,1.040744,0
4482,11.7875,1.000745,0
4488,11.8003,1.057325,0
4494,11.8131,1.015248,0
4500,11.8258,1.028215,0
4506,11.8386,1.04669,0
4512,11.8513,1.033409,0
4518,11.864,0.997792,0
4524,11.8767,1.012072,0
4530,11.8894,1.023706,0
4536,11.9021,1.040936,0
4542,11.9147,1.046013,0
4548,11.9274,1.040388,0
4554,11.94,1.056343,0
4560,11.9526,1.036472,0
4566,11.9652,1.035653,0
4572,11.9778,1.018596,0
4578,11.9903,1.043114,0
4584,12.0029,1.036698,0
4590,12.0154,1.024867,0
4596,12.028,1.04359,0
4602,12.0405,1.06457,0
4608,12.053,1.034019,0
4614,12.0655,1.028588,0
4620,12.0779,1.03001,0
4626,12.0904,1.039366,0
4632,12.1028,1.075845,0
4638,12.1152,1.063533,0
4644,12.1277,1.047439,0
4650,12.14,1.062632,0
4656,12.1524,1.056641,0
4662,12.1648,1.054834,0
4668,12.1772,1.071568,0
4674,12.1895,1.056973,0
4680,12.2018,1.054786,0
4686,12.2141,1.024689,0
4692,12.2264,1.088537,0
4698,12.2387,1.095756,0
4704,12.251,1.114384,0
4710,12.2632,1.089604,0
4716,12.2755,1.059882,0
4722,12.2877,1.056718,0
4728,12.2999,1.11804,0
4734,12.3121,1.043653,0
4740,12.3243,1.053902,0
4746,12.3364,1.068369,0
4752,12.3486,1.085597,0
4758,12.3607,1.091851,0
4764,12.3728,1.051898,0
4770,12.3849,1.095058,0
4776,12.397,1.073068,0
4782,12.4091,1.057732,0
4788,12.4212,1.063308,0
4794,12.4332,1.054318,0
4800,12.4453,1.084093,0
4806,12.4573,1.080573,0
4812,12.4693,1.070468,0
4818,12.4813,1.061236,0
4824,12.4932,1.093431,0
4830,12.5052,1.054696,0
4836,12.5171,1.060721,0
4842,12.5291,1.113499,0
4848,12.541,1.112936,0
4854,12.5529,1.025959,0
4860,12.5648,1.030707,0
4866,12.5766,1.062836,0
4872,12.5885,1.041272,0
4878,12.6003,1.015531,0
4884,12.6122,1.011427,0
4890,12.624,1.032905,0
4896,12.6358,1.057855,0
4902,12.6475,1.063255,0
4908,12.6593,1.07503,0
4914,12.6711,1.06204,0
4920,12.6828,1.007136,0
4926,12.6945,1.02592,0
4932,12.7062,1.006174,0
4938,12.7179,1.046181,0
4944,12.7296,1.028899,0
4950,12.7412,1.006298,0
4956,12.7529,0.987467,0
4962,12.7645,1.026769,0
4968,12.7761,1.002032,0
4974,12.7877,1.000301,0
4980,12.7993,0.994818,0
4986,12.8109,1.017909,0
4992,12.8224,0.984079,0
4998,12.834,0.981286,0
5004,12.8455,0.977975,0
5010,12.857,0.991971,0
5016,12.8685,0.984122,0
5022,12.88,1.010051,0
5028,12.8915,0.959138,0
5034,12.9029,0.997934,0
5040,12.9143,0.993046,0
5046,12.9258,0.950362,0
5052,12.9372,0.977652,0
5058,12.9485,0.973219,0
5064,12.9599,0.980908,0
5070,12.9713,0.985724,0
5076,12.9826,0.969409,0
5082,12.9939,0.986392,0
5088,13.0052,0.97426,0
5094,13.0165,0.945662,0
5100,13.0278,0.985196,0
5106,13.0391,1.000974,0
5112,13.0503,0.953115,0
5118,13.0616,0.948552,0
5124,13.0728,0.964356,0
5130,13.084,1.018299,0
5136,13.0952,0.966956,0
5142,13.1063,0.991046,0
5148,13.1175,1.00117,0
5154,13.1286,0.974473,0
5160,13.1398,0.993451,0
5166,13.1509,0.988096,0
5172,13.162,0.915766,0
5178,13.1731,0.949989,0
5184,13.1841,0.968934,0
5190,13.1952,0.991908,0
5196,13.2062,0.94073,0
5202,13.2172,0.952028,0
5208,13.2282,0.923026,0
5214,13.2392,0.943098,0
5220,13.2502,0.948856,0
5226,13.2611,0.946354,0
5232,13.2721,0.960665,0
5238,13.283,0.965166,0
5244,13.2939,0.9229,0
5250,13.3048,0.963229,0
5256,13.3157,0.876868,0
5262,13.3265,0.935542,0
5268,13.3374,0.921738,0
5274,13.3482,0.911196,0
5280,13.359,0.937079,0
5286,13.3698,0.896983,0
5292,13.3806,0.911365,0
5298,13.3913,0.899581,0
5304,13.4021,0.914304,0
5310,13.4128,0.850635,0
5316,13.4235,0.894548,0
5322,13.4343,0.862567,0
5328,13.4449,0.907139,0
5334,13.4556,0.940264,0
5340,13.4663,0.90633,0
5346,13.4769,0.919725,0
5352,13.4875,0.927308,0
5358,13.4981,0.943314,0
5364,13.5087,0.940452,0
5370,13.5193,0.970441,0
5376,13.5299,0.97686,0
5382,13.5404,0.947485,0
5388,13.5509,0.925464,0
5394,13.5614,0.950092,0
5400,13.5719,0.915054,0
5406,13.5824,0.908701,0
5412,13.5929,0.978864,0
5418,13.6033,0.930081,0
5424,13.6138,0.944533,0
5430,13.6242,0.940753,0
5436,13.6346,0.925058,0
5442,13.645,0.969731,0
5448,13.6553,0.942288,0
5454,13.6657,0.877239,0
5460,13.676,0.950832,0
5466,13.6863,0.99852,0
5472,13.6966,0.944032,0
5478,13.7069,0.950732,0
5484,13.7172,0.955383,0
5490,13.7274,0.905679,0
5496,13.7377,0.985747,0
5502,13.7479,0.945958,0
5508,13.7581,0.916325,0
5514,13.7683,0.933818,0
5520,13.7785,0.927879,0
5526,13.7886,0.930235,0
5532,13.7988,0.937212,0
5538,13.8089,0.966185,0
5544,13.819,0.917808,0
5550,13.8291,0.928095,0
5556,13.8392,0.955267,0
5562,13.8492,0.927471,0
5568,13.8593,0.943496,0
5574,13.8693,0.946141,0
5580,13.8793,0.931782,0
5586,13.8893,0.969046,0
5592,13.8993,0.978759,0
5598,13.9093,1.000638,0
5604,13.9192,0.954753,0
5610,13.9291,0.930281,0
5616,13.9391,0.954298,0
5622,13.9489,0.957001,0
5628,13.9588,0.990828,0
5634,13.9687,0.98857,0
5640,13.9785,0.928387,0
5646,13.9884,0.978298,0
5652,13.9982,1.022187,0
5658,14.008,0.94561,0
5664,14.0178,0.957002,0
5670,14.0275,0.992106,0
5676,14.0373,1.050015,0
5682,14.047,1.00085,0
5688,14.0567,0.979214,0
5694,14.0664,0.997673,0
5700,14.0761,1.017558,0
5706,14.0858,0.964286,0
5712,14.0954,1.027339,0
5718,14.1051,0.995192,0
5724,14.1147,0.984027,0
5730,14.1243,1.042944,0
5736,14.1339,1.043311,0
5742,14.1434,0.985223,0
5748,14.153,0.988117,0
5754,14.1625,1.089841,0
5760,14.172,1.04737,0
5766,14.1815,1.025999,0
5772,14.191,1.017798,0
5778,14.2005,0.965492,0
5784,14.2099,0.981043,0
5790,14.2194,0.988027,0
5796,14.2288,0.995647,0
5802,14.2382,0.980332,0
5808,14.2476,1.050898,0
5814,14.2569,1.021273,0
5820,14.2663,0.953443,0
5826,14.2756,1.01173,0
5832,14.2849,0.996049,0
5838,14.2942,0.978373,0
5844,14.3035,0.992755,0
5850,14.3128,1.055593,0
5856,14.322,0.982461,0
5862,14.3313,1.040786,0
5868,14.3405,1.006372,0
5874,14.3497,1.029043,0
5880,14.3589,0.986452,0
5886,14.368,1.029357,0
5892,14.3772,1.004964,0
5898,14.3863,1.041045,0
5904,14.3954,0.921342,0
5910,14.4045,0.97024,0
5916,14.4136,1.01447,0
5922,14.4227,0.963247,0
5928,14.4317,1.02591,0
5934,14.4407,1.023252,0
5940,14.4498,1.020408,0
5946,14.4588,1.015353,0
5952,14.4677,0.97375,0
5958,14.4767,1.018067,0
5964,14.4856,0.978819,0
5970,14.4946,1.074033,0
5976,14.5035,1.104261,0
5982,14.5124,1.070782,0
5988,14.5213,1.066236,0
5994,14.5301,1.085144,0
6000,14.539,1.102098,0
6006,14.5478,1.058537,0
6012,14.5566,1.089413,0
6018,14.5654,1.122285,0
6024,14.5742,1.08718,0
6030,14.5829,1.099129,0
6036,14.5917,1.087727,0
6042,14.6004,1.087871,0
6048,14.6091,1.135332,0
6054,14.6178,1.044155,0
6060,14.6265,1.049635,0
6066,14.6351,1.052927,0
6072,14.6438,1.041575,0
6078,14.6524,1.065409,0
6084,14.661,1.0729,0
6090,14.6696,1.057728,0
6096,14.6781,1.06915,0
6102,14.6867,1.031946,0
6108,14.6952,1.034569,0
6114,14.7037,1.00256,0
6120,14.7122,0.990198,0
6126,14.7207,1.0098,0
6132,14.7292,0.969051,0
6138,14.7376,1.022542,0
6144,14.7461,1.031559,0
6150,14.7545,1.059388,0
6156,14.7629,1.122817,0
6162,14.7713,1.031619,0
6168,14.7796,1.03766,0
6174,14.788,1.045455,0
6180,14.7963,1.036799,0
6186,14.8046,1.00724,0
6192,14.8129,0.990236,0
6198,14.8212,1.089672,0
6204,14.8294,1.104675,0
6210,14.8377,1.043217,0
6216,14.8459,1.050613,0
6222,14.8541,1.13036,0
6228,14.8623,1.069269,0
6234,14.8705,1.116319,0
6240,14.8786,1.030084,0
6246,14.8868,1.075767,0
6252,14.8949,1.052468,0
6258,14.903,1.040464,0
6264,14.9111,1.074486,0
6270,14.9191,1.042834,0
6276,14.9272,1.121796,0
6282,14.9352,1.065494,0
6288,14.9432,1.063763,0
6294,14.9512,1.047015,0
6300,14.9592,1.040131,0
6306,14.9672,1.03703,0
6312,14.9751,1.008554,0
6318,14.9831,0.984578,0
6324,14.991,1.067165,0
6330,14.9989,1.057346,0
6336,15.0067,1.007714,0
6342,15.0146,0.997346,0
6348,15.0224,1.064217,0
6354,15.0303,0.983976,0
6360,15.0381,1.08892,0
6366,15.0459,1.033018,0
6372,15.0536,1.030904,0
6378,15.0614,1.129172,0
6384,15.0691,1.008266,0
6390,15.0768,0.997101,0
6396,15.0845,0.994953,0
6402,15.0922,1.02283,0
6408,15.0999,1.024513,0
6414,15.1075,1.071018,0
6420,15.1151,1.087706,0
6426,15.1228,1.232995,0
6432,15.1303,1.080078,0
6438,15.1379,1.047727,0
6444,15.1455,1.04109,0
6450,15.153,0.968263,0
6456,15.1605,1.054224,0
6462,15.168,1.00905,0
6468,15.1755,1.042161,0
6474,15.183,1.105571,0
6480,15.1905,1.070488,0
6486,15.1979,1.085144,0
6492,15.2053,1.001819,0
6498,15.2127,1.0115,0
6504,15.2201,1.047544,0
6510,15.2274,1.071079,0
6516,15.2348,1.032001,0
6522,15.2421,1.035447,0
6528,15.2494,1.021413,0
6534,15.2567,1.050428,0
6540,15.264,1.055802,0
6546,15.2712,1.025607,0
6552,15.2785,1.014195,0
6558,15.2857,1.014254,0
6564,15.2929,1.059609,0
6570,15.3001,0.979432,0
6576,15.3073,1.088579,0
6582,15.3144,0.960873,0
6588,15.3215,1.026508,0
6594,15.3286,1.059285,0
6600,15.3357,0.966801,0
6606,15.3428,0.960823,0
6612,15.3499,1.014573,0
6618,15.3569,1.015172,0
6624,15.3639,1.012371,0
6630,15.3709,0.940929,0
6636,15.3779,0.995188,0
6642,15.3849,0.939832,0
6648,15.3919,0.952675,0
6654,15.3988,0.948041,0
6660,15.4057,0.974116,0
6666,15.4126,0.991067,0
6672,15.4195,0.907325,0
6678,15.4263,1.000402,0
6684,15.4332,0.937721,0
6690,15.44,1.005682,0
6696,15.4468,0.990651,0
6702,15.4536,1.052832,0
6708,15.4604,1.007218,0
6714,15.4671,0.952944,0
6720,15.4739,0.986982,0
6726,15.4806,1.046265,0
6732,15.4873,0.946372,0
6738,15.494,0.993621,0
6744,15.5006,0.972254,0
6750,15.5073,0.980408,0
6756,15.5139,0.919538,0
6762,15.5205,0.94395,0
6768,15.5271,0.939242,0
6774,15.5337,1.001223,0
6780,15.5402,0.967541,0
6786,15.5468,0.975948,0
6792,15.5533,0.952316,0
6798,15.5598,0.963918,0
6804,15.5663,0.970712,0
6810,15.5727,0.946709,0
6816,15.5792,0.938738,0
6822,15.5856,0.979514,0
6828,15.592,0.954719,0
6834,15.5984,0.919928,0
6840,15.6048,0.954579,0
6846,15.6111,0.996581,0
6852,15.6175,0.960871,0
6858,15.6238,1.021693,0
6864,15.6301,0.987012,0
6870,15.6364,0.92106,0
6876,15.6426,1.012831,0
6882,15.6489,0.954671,0
6888,15.6551,0.950997,0
6894,15.6613,0.898542,0
6900,15.6675,1.053871,0
6906,15.6737,0.966251,0
6912,15.6798,0.970048,0
6918,15.6859,1.02647,0
6924,15.6921,0.992566,0
6930,15.6982,1.056504,0
6936,15.7042,0.987275,0
6942,15.7103,0.974752,0
6948,15.7163,0.984577,0
6954,15.7224,0.940701,0
6960,15.7284,1.018873,0
6966,15.7344,1.074207,0
6972,15.7403,1.054193,0
6978,15.7463,1.039795,0
6984,15.7522,1.076292,0
6990,15.7581,0.968958,0
6996,15.764,0.931669,0
7002,15.7699,1.063475,0
7008,15.7758,0.979485,0
7014,15.7816,1.02244,0
7020,15.7874,0.943866,0
7026,15.7932,1.014792,0
7032,15.799,1.00589,0
7038,15.8048,0.945068,0
7044,15.8105,1.041757,0
7050,15.8163,0.971206,0
7056,15.822,0.952901,0
7062,15.8277,0.995854,0
7068,15.8334,0.902812,0
7074,15.839,0.915556,0
7080,15.8447,0.978431,0
7086,15.8503,0.971064,0
7092,15.8559,0.951333,0
7098,15.8615,0.987931,0
7104,15.867,0.991148,0
7110,15.8726,0.965832,0
7116,15.8781,0.964618,0
7122,15.8836,0.968469,0
7128,15.8891,1.003681,0
7134,15.8946,0.984267,0
7140,15.9,1.031647,0
7146,15.9055,1.008985,0
7152,15.9109,1.020997,0
7158,15.9163,0.995649,0
7164,15.9217,0.970155,0
7170,15.927,0.91724,0
7176,15.9324,0.983474,0
7182,15.9377,0.946722,0
7188,15.943,0.960467,0
7194,15.9483,1.001885,0
7200,15.9535,0.999596,0
7206,15.9588,0.99938,0
7212,15.964,1.025465,0
7218,15.9692,0.998838,0
7224,15.9744,0.968304,0
7230,15.9796,1.038337,0
7236,15.9848,1.026893,0
7242,15.9899,1.026349,0
7248,15.995,1.030891,0
7254,16.0001,1.025637,0
7260,16.0052,0.90166,0
7266,16.0103,0.958179,0
7272,16.0153,0.975441,0
7278,16.0203,1.010803,0
7284,16.0253,1.030633,0
7290,16.0303,0.95503,0
7296,16.0353,0.936239,0
7302,16.0403,1.007293,0
7308,16.0452,0.938834,0
7314,16.0501,0.973519,0
7320,16.055,1.000159,0
7326,16.0599,0.95916,0
7332,16.0647,0.958962,0
7338,16.0696,0.908554,0
7344,16.0744,0.973412,0
7350,16.0792,0.988527,0
7356,16.084,1.034846,0
7362,16.0887,0.981149,0
7368,16.0935,0.98973,0
7374,16.0982,0.939226,0
7380,16.1029,0.981927,0
7386,16.1076,0.92233,0
7392,16.1123,0.979645,0
7398,16.1169,0.972202,0
7404,16.1216,0.956922,0
7410,16.1262,0.925624,0
7416,16.1308,0.996816,0
7422,16.1354,0.930066,0
7428,16.1399,0.966183,0
7434,16.1444,0.973203,0
7440,16.149,0.965105,0
7446,16.1535,0.929955,0
7452,16.158,0.970126,0
7458,16.1624,0.950076,0
7464,16.1669,0.961984,0
7470,16.1713,0.940582,0
7476,16.1757,0.962952,0
7482,16.1801,1.025732,0
7488,16.1845,0.924741,0
7494,16.1888,0.94399,0
7500,16.1931,0.997622,0
7506,16.1974,1.018868,0
7512,16.2017,0.969371,0
7518,16.206,1.026458,0
7524,16.2103,1.032794,0
7530,16.2145,0.988869,0
7536,16.2187,1.007245,0
7542,16.2229,0.977278,0
7548,16.2271,0.99405,0
7554,16.2313,0.940083,0
7560,16.2354,0.965216,0
7566,16.2395,0.944727,0
7572,16.2436,0.966267,0
7578,16.2477,0.97667,0
7584,16.2518,0.968573,0
7590,16.2558,0.95992,0
7596,16.2599,0.997818,0
7602,16.2639,0.953963,0
7608,16.2679,1.028082,0
7614,16.2719,0.972774,0
7620,16.2758,0.935283,0
7626,16.2797,0.917192,0
7632,16.2837,0.954168,0
7638,16.2876,0.911691,0
7644,16.2914,0.906871,0
7650,16.2953,0.928839,0
7656,16.2991,0.948523,0
7662,16.303,0.970021,0
7668,16.3068,0.906639,0
7674,16.3105,0.971998,0
7680,16.3143,0.848085,0
7686,16.3181,0.89193,0
7692,16.3218,0.927674,0
7698,16.3255,0.908788,0
7704,16.3292,0.932303,0
7710,16.3328,0.913603,0
7716,16.3365,0.876691,0
7722,16.3401,0.922614,0
7724,16.3413,0.927425,0