File: data/xrd_measurements/Li3PS4/g_of_r.csv
r,G_r
0.01,-0.006186
0.05,-0.030549
0.09,-0.053596
0.13,-0.075035
0.17,-0.09545
0.21,-0.115999
0.25,-0.137781
0.29,-0.161237
0.33,-0.185892
0.37,-0.210593
0.41,-0.234127
0.45,-0.255888
0.49,-0.276238
0.53,-0.296343
0.57,-0.317561
0.61,-0.340692
0.65,-0.365498
0.69,-0.39078
0.73,-0.414989
0.77,-0.437086
0.81,-0.457168
0.85,-0.476503
0.89,-0.496898
0.93,-0.5197
0.97,-0.544972
1.01,-0.571316
1.05,-0.596539
1.09,-0.618868
1.13,-0.638074
1.17,-0.655838
1.21,-0.675007
1.25,-0.697997
1.29,-0.725151
1.33,-0.754051
1.37,-0.780463
1.41,-0.800795
1.45,-0.814994
1.49,-0.828248
1.53,-0.849947
1.57,-0.889351
1.61,-0.94894
1.65,-1.017901
1.69,-1.068943
1.73,-1.061087
1.77,-0.949262
1.81,-0.698896
1.85,-0.30129
1.89,0.215716
1.93,0.786551
1.97,1.318431
2.01,1.711974
2.05,1.886624
2.09,1.80334
2.13,1.477218
2.17,0.975437
2.21,0.400476
2.25,-0.136707
2.29,-0.545499
2.33,-0.777675
2.37,-0.836105
2.41,-0.768021
2.45,-0.645778
2.49,-0.542031
2.53,-0.507738
2.57,-0.559881
2.61,-0.682042
2.65,-0.836237
2.69,-0.980586
2.73,-1.085698
2.77,-1.143724
2.81,-1.167223
2.85,-1.179116
2.89,-1.198402
2.93,-1.227809
2.97,-1.248559
3.01,-1.22458
3.05,-1.114769
3.09,-0.888834
3.13,-0.540918
3.17,-0.096026
3.21,0.393166
3.25,0.858175
3.29,1.231447
3.33,1.462756
3.37,1.53043
3.41,1.444551
3.45,1.241935
3.49,0.975184
3.53,0.699502
3.57,0.46108
3.61,0.289729
3.65,0.196729
3.69,0.17719
3.73,0.21515
3.77,0.289384
3.81,0.378347
3.85,0.463489
3.89,0.530941
3.93,0.572037
3.97,0.583182
4.01,0.565364
4.05,0.523358
4.09,0.464516
4.13,0.397128
4.17,0.328578
4.21,0.263725
4.25,0.204027
4.29,0.147741
4.33,0.0912
4.37,0.030738
4.41,-0.03541
4.45,-0.105929
4.49,-0.176442
4.53,-0.2407
4.57,-0.29255
4.61,-0.327947
4.65,-0.346292
4.69,-0.3506
4.73,-0.346451
4.77,-0.340082
4.81,-0.336284
4.85,-0.33682
4.89,-0.339903
4.93,-0.340893
4.97,-0.333988
5.01,-0.314362
5.05,-0.280048
5.09,-0.232972
5.13,-0.178791
5.17,-0.125566
5.21,-0.081663
5.25,-0.053511
5.29,-0.043896
5.33,-0.051319
5.37,-0.070597
5.41,-0.094509
5.45,-0.115961
5.49,-0.129941
5.53,-0.134664
5.57,-0.131534
5.61,-0.124013
5.65,-0.115847
5.69,-0.109333
5.73,-0.104291
5.77,-0.098102
5.81,-0.086771
5.85,-0.066553
5.89,-0.035455
5.93,0.005988
5.97,0.054992
6.01,0.10769
6.05,0.160679
6.09,0.212233
6.13,0.262649
6.17,0.313561
6.21,0.366549
6.25,0.421694
6.29,0.4768
6.33,0.527719
6.37,0.569724
6.41,0.599377
6.45,0.616058
6.49,0.622427
6.53,0.623488
6.57,0.624567
6.61,0.629005
6.65,0.636561
6.69,0.643282
6.73,0.643009
6.77,0.629976
6.81,0.601461
6.85,0.559343
6.89,0.509847
6.93,0.461446
6.97,0.421715
7.01,0.39436
7.05,0.37767
7.09,0.365061
7.13,0.347586
7.17,0.317437
7.21,0.271086
7.25,0.210798
7.29,0.143921
7.33,0.080228
7.37,0.028364
7.41,-0.007204
7.45,-0.027567
7.49,-0.038614
7.53,-0.048513
7.57,-0.064521
7.61,-0.09039
7.65,-0.125359
7.69,-0.164991
7.73,-0.203362
7.77,-0.235588
7.81,-0.259621
7.85,-0.276631
7.89,-0.289995
7.93,-0.303462
7.97,-0.319435
8.01,-0.338127
8.05,-0.357886
8.09,-0.376413
8.13,-0.392155
8.17,-0.405119
8.21,-0.416682
8.25,-0.4285
8.29,-0.441117
8.33,-0.453045
8.37,-0.460906
8.41,-0.460671
8.45,-0.449504
8.49,-0.42731
8.53,-0.397195
8.57,-0.364446
8.61,-0.334362
8.65,-0.309833
8.69,-0.289768
8.73,-0.269204
8.77,-0.241228
8.81,-0.200036
8.85,-0.143896
8.89,-0.076713
8.93,-0.007374
8.97,0.053017
9.01,0.09507
9.05,0.114673
9.09,0.114748
9.13,0.104419
9.17,0.095814
9.21,0.099675
9.25,0.121429
9.29,0.159228
9.33,0.204686
9.37,0.246012
9.41,0.272308
9.45,0.277396
9.49,0.261765
9.53,0.232012
9.57,0.198137
9.61,0.169858
9.65,0.153407
9.69,0.14997
9.73,0.156188
9.77,0.166277
9.81,0.174718
9.85,0.17835
9.89,0.177053
9.93,0.172929
9.97,0.168563
10.01,0.16529
10.05,0.162363
10.09,0.157399
10.13,0.147836
10.17,0.132656
10.21,0.113456
10.25,0.09426
10.29,0.080057
10.33,0.074646
10.37,0.078745
10.41,0.089272
10.45,0.100189
10.49,0.104694
10.53,0.097889
10.57,0.078842
10.61,0.051144
10.65,0.021678
10.69,-0.001988
10.73,-0.014555
10.77,-0.01514
10.81,-0.007735
10.85,0.000237
10.89,0.000735
10.93,-0.011803
10.97,-0.038266
11.01,-0.074442
11.05,-0.112502
11.09,-0.143853
11.13,-0.162257
11.17,-0.166048
11.21,-0.158618
11.25,-0.147014
11.29,-0.139194
11.33,-0.140991
11.37,-0.153909
11.41,-0.17458
11.45,-0.196043
11.49,-0.210372
11.53,-0.211662
11.57,-0.198269
11.61,-0.17349
11.65,-0.144428
11.69,-0.119447
11.73,-0.105128
11.77,-0.103824
11.81,-0.112682
11.85,-0.124515
11.89,-0.13024
11.93,-0.12205
11.97,-0.096231
12.01,-0.054637
12.05,-0.004282
12.09,0.04484
12.13,0.082988
12.17,0.103869
12.21,0.106694
12.25,0.096372
12.29,0.08176
12.33,0.072542
12.37,0.075821
12.41,0.093621
12.45,0.122162
12.49,0.153214
12.53,0.177041
12.57,0.185914
12.61,0.17693
12.65,0.153115
12.69,0.122391
12.73,0.094754
12.77,0.078661
12.81,0.077936
12.85,0.090309
12.89,0.108152
12.93,0.121163
12.97,0.120055
13.01,0.099937
13.05,0.062192
13.09,0.014173
13.13,-0.03317
13.17,-0.068888
13.21,-0.085617
13.25,-0.081914
13.29,-0.062602
13.33,-0.037051
13.37,-0.016068
13.41,-0.008468
13.45,-0.018467
13.49,-0.044692
13.53,-0.081
13.57,-0.118707
13.61,-0.149388
13.65,-0.167334
13.69,-0.170916
13.73,-0.16258
13.77,-0.147628
13.81,-0.132308
13.85,-0.121881
13.89,-0.119225
13.93,-0.124324
13.97,-0.134655
14.01,-0.146257
14.05,-0.155074
14.09,-0.158199
14.13,-0.154659
14.17,-0.145586
14.21,-0.133751
14.25,-0.122624
14.29,-0.11522
14.33,-0.113084
14.37,-0.115719
14.41,-0.12067
14.45,-0.124291
14.49,-0.122978
14.53,-0.114507
14.57,-0.098977
14.61,-0.078997
14.65,-0.058964
14.69,-0.043597
14.73,-0.036231
14.77,-0.037472
14.81,-0.044792
14.85,-0.053265
14.89,-0.05729
14.93,-0.052676
14.97,-0.03832
15.01,-0.016795
15.05,0.00646
15.09,0.025103
15.13,0.034305
15.17,0.032694
15.21,0.023047
15.25,0.0114
15.29,0.004869
15.33,0.008979
15.37,0.025521
15.41,0.051774
15.45,0.081416
15.49,0.106784
15.53,0.12162
15.57,0.123262
15.61,0.113439
15.65,0.097423
15.69,0.081886
15.73,0.072366
15.77,0.07133
15.81,0.077569
15.85,0.087082
15.89,0.095012
15.93,0.097763
15.97,0.094405
16.01,0.086822
16.05,0.078585
16.09,0.073126
16.13,0.072042
16.17,0.074308
16.21,0.076737
16.25,0.075488
16.29,0.06794
16.33,0.054072
16.37,0.036718
16.41,0.020527
16.45,0.010044
16.49,0.00771
16.53,0.012648
16.57,0.020782
16.61,0.026307
16.65,0.023936
16.69,0.011046
16.73,-0.01115
16.77,-0.037883
16.81,-0.062476
16.85,-0.078735
16.89,-0.083144
16.93,-0.076065
16.97,-0.061483
17.01,-0.045448
17.05,-0.033856
17.09,-0.030405
17.13,-0.035503
17.17,-0.046465
17.21,-0.058845
17.25,-0.068295
17.29,-0.072225
17.33,-0.070597
17.37,-0.06563
17.41,-0.060605
17.45,-0.0583
17.49,-0.059736
17.53,-0.063724
17.57,-0.06737
17.61,-0.067325
17.65,-0.061243
17.69,-0.048867
17.73,-0.032312
17.77,-0.015419
17.81,-0.002425
17.85,0.003568
17.89,0.001767
17.93,-0.005939
17.97,-0.015529
18.01,-0.02216
18.05,-0.02179
18.09,-0.012564
18.13,0.0045
18.17,0.025775
18.21,0.046156
18.25,0.060705
18.29,0.066269
18.33,0.062545
18.37,0.052206
18.41,0.040037
18.45,0.031334
18.49,0.03008
18.53,0.037528
18.57,0.051689
18.61,0.067946
18.65,0.080628
18.69,0.085035
18.73,0.079201
18.77,0.064753
18.81,0.046501
18.85,0.030845
18.89,0.023516
18.93,0.027447
18.97,0.041563
19.01,0.060981
19.05,0.0786
19.09,0.087565
19.13,0.083717
19.17,0.067138
19.21,0.042189
19.25,0.016003
19.29,-0.004044
19.33,-0.01294
19.37,-0.009777
19.41,0.002056
19.45,0.01627
19.49,0.026141
19.53,0.027085
19.57,0.018348
19.61,0.003176
19.65,-0.0126
19.69,-0.022974
19.73,-0.024233
19.77,-0.016478
19.81,-0.003605
19.85,0.008241
19.89,0.013138
19.93,0.007784
19.97,-0.007116
20.01,-0.027043
20.05,-0.045343
20.09,-0.055754
20.13,-0.054769
20.17,-0.042933
20.21,-0.024579
20.25,-0.006113
20.29,0.006434
20.33,0.009654
20.37,0.003914
20.41,-0.006985
20.45,-0.017481
20.49,-0.022551
20.53,-0.019717
20.57,-0.009962
20.61,0.002785
20.65,0.013351
20.69,0.017522
20.73,0.01383
20.77,0.004226
20.81,-0.00664
20.85,-0.013243
20.89,-0.011384
20.93,0.000091
20.97,0.018744
21.01,0.039375
21.05,0.05593
21.09,0.063741
21.13,0.061256
21.17,0.050592
21.21,0.036719
21.25,0.025568
21.29,0.021815
21.33,0.027149
21.37,0.039696
21.41,0.054784
21.45,0.066772
21.49,0.071209
21.53,0.066531
21.57,0.054638
21.61,0.040134
21.65,0.028543
21.69,0.024167
21.73,0.028424
21.77,0.039288
21.81,0.052061
21.85,0.061178
21.89,0.06235
21.93,0.054231
21.97,0.038957
22.01,0.021345
22.05,0.007067
22.09,0.000487
22.13,0.003025
22.17,0.012667
22.21,0.024828
22.25,0.034215
22.29,0.036954
22.33,0.032125
22.37,0.022072
22.41,0.011361
22.45,0.004786
22.49,0.005249
22.53,0.012388
22.57,0.022561
22.61,0.030229
22.65,0.03023
22.69,0.020019
22.73,0.000947
22.77,-0.021991
22.81,-0.041922
22.85,-0.0527
22.89,-0.05134
22.93,-0.039285
22.97,-0.021954
23.01,-0.006703
23.05,0.000047
23.09,-0.00464
23.13,-0.018996
23.17,-0.037187
23.21,-0.051605
23.25,-0.055905
23.29,-0.047613
23.33,-0.029232
23.37,-0.007394
23.41,0.009644
23.45,0.0152
23.49,0.00679
23.53,-0.012833
23.57,-0.03666
23.61,-0.056031
23.65,-0.063868
23.69,-0.05727
23.73,-0.038502
23.77,-0.014024
23.81,0.008015
23.85,0.02082
23.89,0.021348
23.93,0.011182
23.97,-0.004368
24.01,-0.018507
24.05,-0.025591
24.09,-0.023126
24.13,-0.01241
24.17,0.002328
24.21,0.015835
24.25,0.023946
24.29,0.025065
24.33,0.020479
24.37,0.013496
24.41,0.007865
24.45,0.006192
24.49,0.008992
24.53,0.014698
24.57,0.020529
24.61,0.023769
24.65,0.022894
24.69,0.018102
24.73,0.011105
24.77,0.004357
24.81,0.000092
24.85,-0.000411
24.89,0.002882
24.93,0.00895
24.97,0.016185
25.01,0.022889
25.05,0.027609
25.09,0.029266
25.13,0.027163
25.17,0.021029
25.21,0.011152
25.25,-0.001424
25.29,-0.014833
25.33,-0.026597
25.37,-0.034206
25.41,-0.035933
25.45,-0.031577
25.49,-0.022804
25.53,-0.012819
25.57,-0.00539
25.61,-0.003538
25.65,-0.008379
25.69,-0.018608
25.73,-0.030905
25.77,-0.041132
25.81,-0.045895
25.85,-0.043824
25.89,-0.036048
25.93,-0.025659
25.97,-0.016383
26.01,-0.011028
26.05,-0.010394
26.09,-0.013113
26.13,-0.016486
26.17,-0.017923
26.21,-0.016317
26.25,-0.012676
26.29,-0.009692
26.33,-0.010394
26.37,-0.016489
26.41,-0.027181
26.45,-0.039091
26.49,-0.047407
26.53,-0.047875
26.57,-0.038776
26.61,-0.022011
26.65,-0.002724
26.69,0.012488
26.73,0.018121
26.77,0.012023
26.81,-0.003578
26.85,-0.022786
26.89,-0.038248
26.93,-0.044022
26.97,-0.037923
27.01,-0.022391
27.05,-0.003498
27.09,0.011506
27.13,0.017121
27.17,0.011784
27.21,-0.001573
27.25,-0.016819
27.29,-0.027212
27.33,-0.028196
27.37,-0.019242
27.41,-0.003969
27.45,0.01145
27.49,0.020926
27.53,0.020972
27.57,0.012068
27.61,-0.001692
27.65,-0.014472
27.69,-0.02124
27.73,-0.019885
27.77,-0.011976
27.81,-0.001897
27.85,0.005269
27.89,0.006104
27.93,0.000454
27.97,-0.008498
28.01,-0.015685
28.05,-0.016529
28.09,-0.009165
28.13,0.004464
28.17,0.019171
28.21,0.028549
28.25,0.027629
28.29,0.01507
28.33,-0.006053
28.37,-0.029216
28.41,-0.046815
28.45,-0.052996
28.49,-0.045842
28.53,-0.028077
28.57,-0.00602
28.61,0.012737
28.65,0.022051
28.69,0.019271
28.73,0.00593
28.77,-0.013106
28.81,-0.031594
28.85,-0.04414
28.89,-0.047894
28.93,-0.043133
28.97,-0.032679
29.01,-0.020529
29.05,-0.010325
29.09,-0.004247
29.13,-0.00266
29.17,-0.004491
29.21,-0.008015
29.25,-0.011652
29.29,-0.014435
29.33,-0.016073
29.37,-0.0167
29.41,-0.01656
29.45,-0.015828
29.49,-0.014626
29.53,-0.013172
29.57,-0.011865
29.61,-0.011199
29.65,-0.011489
29.69,-0.012554
29.73,-0.01358
29.77,-0.013317
29.81,-0.010622
29.85,-0.00513
29.89,0.002264
29.93,0.009414
29.97,0.013552
30.01,0.012361
30.05,0.005094
30.09,-0.00677
30.13,-0.019682
30.17,-0.029074
30.21,-0.03097
30.25,-0.023571
30.29,-0.008168
30.33,0.011043
30.37,0.028262
30.41,0.038082
30.45,0.037448
30.49,0.026834
30.53,0.010167
30.57,-0.006519
30.61,-0.017213
30.65,-0.018066
30.69,-0.00875
30.73,0.007468
30.77,0.024937
30.81,0.037678
30.85,0.041501
30.89,0.035432
30.93,0.021946
30.97,0.00597
31.01,-0.006933
31.05,-0.012536
31.09,-0.009357
31.13,0.000948
31.17,0.0143
31.21,0.025699
31.25,0.030977
31.29,0.028174
31.33,0.018129
31.37,0.004107
31.41,-0.009323
31.45,-0.017797
31.49,-0.018529
31.53,-0.011162
31.57,0.002153
31.61,0.01743
31.65,0.030043
31.69,0.036101
31.73,0.033585
31.77,0.022944
31.81,0.006971
31.85,-0.009996
31.89,-0.02334
31.93,-0.029522
31.97,-0.027123
32.01,-0.017259
32.05,-0.003217
32.09,0.010583
32.13,0.01999
32.17,0.02242
32.21,0.017631
32.25,0.007708
32.29,-0.003733
32.33,-0.012834
32.37,-0.016823
32.41,-0.014896
32.45,-0.008352
32.49,0.000046
32.53,0.007197
32.57,0.010842
32.61,0.010324
32.65,0.006663
32.69,0.001961
32.73,-0.001581
32.77,-0.002579
32.81,-0.000939
32.85,0.002297
32.89,0.005624
32.93,0.007922
32.97,0.009053
33.01,0.009922
33.05,0.011947
33.09,0.016203
33.13,0.022639
33.17,0.029794
33.21,0.035194
33.25,0.036324
33.29,0.031772
33.33,0.022048
33.37,0.009667
33.41,-0.001595
33.45,-0.008036
33.49,-0.007433
33.53,0.000061
33.57,0.011906
33.61,0.024074
33.65,0.032529
33.69,0.034692
33.73,0.030308
33.77,0.0214
33.81,0.011338
33.85,0.003438
33.89,-0.000314
33.93,0.000101
33.97,0.002977
34.01,0.005848
34.05,0.006731
34.09,0.005073
34.13,0.00199
34.17,-0.000295
34.21,0.000434
34.25,0.005255
34.29,0.013443
34.33,0.022618
34.37,0.029632
34.41,0.031843
34.45,0.02822
34.49,0.019821
34.53,0.009423
34.57,0.000459
34.61,-0.004289
34.65,-0.003717
34.69,0.001269
34.73,0.008231
34.77,0.014257
34.81,0.017139
34.85,0.016192
34.89,0.012386
34.93,0.007789
34.97,0.004582
35.01,0.004095
35.05,0.006272
35.09,0.009771
35.13,0.012625
35.17,0.013155
35.21,0.010734
35.25,0.006081
35.29,0.00097
35.33,-0.002499
35.37,-0.002763
35.41,0.000563
35.45,0.006521
35.49,0.013149
35.53,0.018184
35.57,0.019839
35.61,0.017375
35.65,0.011289
35.69,0.003096
35.73,-0.005174
35.77,-0.011571
35.81,-0.014726
35.85,-0.014136
35.89,-0.010208
35.93,-0.004099
35.97,0.00258
36.01,0.00813
36.05,0.011149
36.09,0.010875
36.13,0.007424
36.17,0.001843
36.21,-0.004095
36.25,-0.008338
36.29,-0.009188
36.33,-0.00591
36.37,0.00089
36.41,0.009315
36.45,0.016696
36.49,0.020473
36.53,0.019141
36.57,0.012904
36.61,0.00377
36.65,-0.005028
36.69,-0.010102
36.73,-0.009128
36.77,-0.001748
36.81,0.010197
36.85,0.023203
36.89,0.033255
36.93,0.037169
36.97,0.033649
37.01,0.023669
37.05,0.010069
37.09,-0.003464
37.13,-0.013639
37.17,-0.018554
37.21,-0.018119
37.25,-0.013794
37.29,-0.007826
37.33,-0.002329
37.37,0.001425
37.41,0.003259
37.45,0.003847
37.49,0.004168
37.53,0.004925
37.57,0.006192
37.61,0.007426
37.65,0.007777
37.69,0.006535
37.73,0.00348
37.77,-0.000998
37.81,-0.006046
37.85,-0.010653
37.89,-0.013961
37.93,-0.015452
37.97,-0.01498
38.01,-0.012685
38.05,-0.008912
38.09,-0.00419
38.13,0.000717
38.17,0.004775
38.21,0.006779
38.25,0.00565
38.29,0.000881
38.33,-0.00704
38.37,-0.016457
38.41,-0.024801
38.45,-0.029292
38.49,-0.02789
38.53,-0.020161
38.57,-0.007661
38.61,0.006365
38.65,0.017963
38.69,0.023805
38.73,0.022376
38.77,0.014542
38.81,0.003238
38.85,-0.007641
38.89,-0.014726
38.93,-0.016445
38.97,-0.01356
39.01,-0.008732
39.05,-0.0053
39.09,-0.005771
39.13,-0.01067
39.17,-0.018251
39.21,-0.025213
39.25,-0.028133
39.29,-0.025007
39.33,-0.016236
39.37,-0.004615
39.41,0.005706
39.45,0.01087
39.49,0.008891
39.53,0.000491
39.57,-0.011157
39.61,-0.021687
39.65,-0.027283
39.69,-0.026164
39.73,-0.019223
39.77,-0.009538
39.81,-0.00101
39.85,0.003308
39.89,0.002444
39.93,-0.002197
39.97,-0.007583
40.01,-0.010514
40.05,-0.009109
40.09,-0.003693
40.13,0.003344
40.17,0.008613
40.21,0.009278
40.25,0.004377
40.29,-0.004662
40.33,-0.014558
40.37,-0.021541
40.41,-0.02296
40.45,-0.018433
40.49,-0.010048
40.53,-0.001506
40.57,0.003424
40.61,0.002499
40.65,-0.004043
40.69,-0.01356
40.73,-0.022081
40.77,-0.025932
40.81,-0.023228
40.85,-0.014638
40.89,-0.003109
40.93,0.0073
40.97,0.012986
41.01,0.01213
41.05,0.005273
41.09,-0.005038
41.13,-0.015338
41.17,-0.022566
41.21,-0.025099
41.25,-0.023106
41.29,-0.018176
41.33,-0.012452
41.37,-0.007708
41.41,-0.004758
41.45,-0.003402
41.49,-0.002832
41.53,-0.002251
41.57,-0.001341
41.61,-0.000381
41.65,0.000019
41.69,-0.000619
41.73,-0.002274
41.77,-0.004358
41.81,-0.006014
41.85,-0.006628
41.89,-0.006255
41.93,-0.005718
41.97,-0.006267
42.01,-0.008916
42.05,-0.013781
42.09,-0.019747
42.13,-0.024701
42.17,-0.026304
42.21,-0.02301
42.25,-0.014901
42.29,-0.003934
42.33,0.006573
42.37,0.013077
42.41,0.013145
42.45,0.006468
42.49,-0.004899
42.53,-0.01719
42.57,-0.026255
42.61,-0.029069
42.65,-0.024836
42.69,-0.015255
42.73,-0.003848
42.77,0.005377
42.81,0.009416
42.85,0.007336
42.89,0.000523
42.93,-0.007951
42.97,-0.014564
43.01,-0.016674
43.05,-0.013461
43.09,-0.006117
43.13,0.002709
43.17,0.009959
43.21,0.013276
43.25,0.011763
43.29,0.006149
43.33,-0.001618
43.37,-0.009134
43.41,-0.014322
43.45,-0.015963
43.49,-0.013844
43.53,-0.008563
43.57,-0.001181
43.61,0.007095
43.65,0.015082
43.69,0.021631
43.73,0.025605
43.77,0.025946
43.81,0.02191
43.85,0.013423
43.89,0.001409
43.93,-0.012107
43.97,-0.024275
44.01,-0.032065
44.05,-0.033146
44.09,-0.026692
44.13,-0.013836
44.17,0.002441
44.21,0.018018
44.25,0.028736
44.29,0.031591
44.33,0.025628
44.37,0.012264
44.41,-0.005081
44.45,-0.02191
44.49,-0.033886
44.53,-0.037999
44.57,-0.033328
44.61,-0.021222
44.65,-0.004845
44.69,0.011742
44.73,0.024693
44.77,0.031378
44.81,0.03099
44.85,0.024619
44.89,0.014801
44.93,0.004679
44.97,-0.002951
45.01,-0.006433
45.05,-0.005645
45.09,-0.001882
45.13,0.002719
45.17,0.006018
45.21,0.006678
45.25,0.004661
45.29,0.001219
45.33,-0.001614
45.37,-0.001861
45.41,0.001538
45.45,0.008171
45.49,0.016146
45.53,0.022655
45.57,0.024937
45.61,0.021307
45.65,0.011865
45.69,-0.001378
45.73,-0.015033
45.77,-0.025352
45.81,-0.029389
45.85,-0.025904
45.89,-0.015718
45.93,-0.001416
45.97,0.013468
46.01,0.02548
46.05,0.032148
46.09,0.03249
46.13,0.027026
46.17,0.017391
46.21,0.005759
46.25,-0.005701
46.29,-0.015177
46.33,-0.021346
46.37,-0.023375
46.41,-0.020909
46.45,-0.014117
46.49,-0.003806
46.53,0.008515
46.57,0.020742
46.61,0.03052
46.65,0.035799
46.69,0.035426
46.73,0.029567
46.77,0.019748
46.81,0.008462
46.85,-0.001548
46.89,-0.008093
46.93,-0.010127
46.97,-0.007921
47.01,-0.002766
47.05,0.003641
47.09,0.009843
47.13,0.015049
47.17,0.019153
47.21,0.022408
47.25,0.024943
47.29,0.026427
47.33,0.026067
47.37,0.023006
47.41,0.016926
47.45,0.008559
47.49,-0.000199
47.53,-0.006734
47.57,-0.008605
47.61,-0.004563
47.65,0.004738
47.69,0.016683
47.73,0.027405
47.77,0.033056
47.81,0.031182
47.85,0.021675
47.89,0.006911
47.93,-0.009008
47.97,-0.021644
48.01,-0.027726
48.05,-0.026204
48.09,-0.018457
48.13,-0.007624
48.17,0.002665
48.21,0.009627
48.25,0.012208
48.29,0.011203
48.33,0.008609
48.37,0.006571
48.41,0.006378
48.45,0.007962
48.49,0.010083
48.53,0.011082
48.57,0.009819
48.61,0.006363
48.65,0.002076
48.69,-0.000925
48.73,-0.000728
48.77,0.003453
48.81,0.010793
48.85,0.019047
48.89,0.025363
48.93,0.027384
48.97,0.024184
49.01,0.016656
49.05,0.007191
49.09,-0.001204
49.13,-0.006011
49.17,-0.006074
49.21,-0.001924
49.25,0.004528
49.29,0.01077
49.33,0.014605
49.37,0.014841
49.41,0.011536
49.45,0.005782
49.49,-0.000816
49.53,-0.006695
49.57,-0.010715
49.61,-0.012273
49.65,-0.011207
49.69,-0.007653
49.73,-0.001983
49.77,0.005123
49.81,0.012552
49.85,0.018751
49.89,0.021963
49.93,0.020719
49.97,0.014457
50,0.006897