File: data/xrd_measurements/Li3PS4/S_of_Q.csv
Q,SQ
0.462852,-0.192282
0.481362,-0.19752
0.499871,-0.200077
0.51838,-0.202114
0.536888,-0.204323
0.555395,-0.204673
0.573902,-0.203866
0.592408,-0.209422
0.610913,-0.211117
0.629418,-0.206863
0.647922,-0.208049
0.666426,-0.210053
0.684928,-0.205008
0.70343,-0.20491
0.721932,-0.205305
0.740432,-0.200453
0.758932,-0.198841
0.77743,-0.191164
0.795928,-0.1855
0.814425,-0.181068
0.832921,-0.171129
0.851416,-0.161737
0.869911,-0.150038
0.888404,-0.139396
0.906896,-0.117623
0.925388,-0.104366
0.943878,-0.083598
0.962367,-0.060626
0.980856,-0.029555
0.999343,0.00877
1.01783,0.044615
1.03631,0.090316
1.0548,0.142236
1.07328,0.201612
1.09176,0.266081
1.11024,0.334938
1.12872,0.408248
1.1472,0.486311
1.16568,0.56514
1.18415,0.639184
1.20262,0.708401
1.2211,0.767284
1.23957,0.816221
1.25804,0.845174
1.27651,0.857834
1.29497,0.854134
1.31344,0.836433
1.3319,0.80528
1.35037,0.773741
1.36883,0.7288
1.38729,0.679025
1.40575,0.630018
1.4242,0.582097
1.44266,0.542548
1.46111,0.49765
1.47956,0.464374
1.49802,0.424301
1.51646,0.397831
1.53491,0.370152
1.55336,0.354542
1.5718,0.33602
1.59024,0.323101
1.60868,0.317063
1.62712,0.312833
1.64556,0.315982
1.66399,0.320968
1.68243,0.33044
1.70086,0.340765
1.71929,0.360494
1.73771,0.380995
1.75614,0.410942
1.77456,0.44334
1.79299,0.47912
1.81141,0.519741
1.82982,0.581786
1.84824,0.636019
1.86665,0.707226
1.88506,0.815314
1.90347,0.906525
1.92188,0.970164
1.94029,1.064967
1.95869,1.195531
1.97709,1.320192
1.99549,1.461428
2.01389,1.589325
2.03228,1.712764
2.05067,1.811081
2.06906,1.884334
2.08745,1.928612
2.10584,1.916418
2.12422,1.871091
2.1426,1.784908
2.16098,1.682423
2.17936,1.567155
2.19773,1.45086
2.2161,1.32129
2.23447,1.210489
2.25284,1.104806
2.2712,1.014109
2.28956,0.948489
2.30792,0.879805
2.32628,0.820074
2.34463,0.768563
2.36298,0.733507
2.38133,0.698291
2.39968,0.668146
2.41802,0.639481
2.43636,0.626318
2.4547,0.607901
2.47304,0.594678
2.49137,0.582875
2.5097,0.576686
2.52803,0.568237
2.54635,0.570916
2.56467,0.564953
2.58299,0.571547
2.60131,0.577587
2.61962,0.581014
2.63793,0.587232
2.65624,0.599389
2.67455,0.601615
2.69285,0.616906
2.71115,0.618943
2.72944,0.631662
2.74773,0.638615
2.76602,0.653022
2.78431,0.656402
2.80259,0.667753
2.82088,0.677357
2.83915,0.696424
2.85743,0.712292
2.8757,0.724548
2.89397,0.73296
2.91223,0.748598
2.93049,0.762639
2.94875,0.778174
2.96701,0.792901
2.98526,0.80976
3.00351,0.826367
3.02175,0.841814
3.04,0.853859
3.05823,0.867958
3.07647,0.89894
3.0947,0.93426
3.11293,0.92874
3.13116,0.921036
3.14938,0.924678
3.1676,0.931039
3.18581,0.936904
3.20402,0.939056
3.22223,0.953199
3.24043,0.950969
3.25864,0.954263
3.27683,0.961795
3.29503,0.967945
3.31322,0.976867
3.3314,0.995668
3.34959,1.011386
3.36776,1.029588
3.38594,1.049591
3.40411,1.074667
3.42228,1.094402
3.44044,1.123657
3.4586,1.150163
3.47676,1.173546
3.49491,1.199373
3.51306,1.232167
3.53121,1.246006
3.54935,1.26448
3.56749,1.288097
3.58562,1.309279
3.60375,1.322997
3.62188,1.356609
3.64,1.379656
3.65811,1.37276
3.67623,1.358156
3.69434,1.365255
3.71244,1.3674
3.73054,1.364322
3.74864,1.361507
3.76674,1.366865
3.78482,1.360814
3.80291,1.35814
3.82099,1.353834
3.83907,1.349726
3.85714,1.341386
3.87521,1.344341
3.89327,1.342846
3.91133,1.344643
3.92939,1.336749
3.94744,1.336938
3.96548,1.333192
3.98353,1.337774
4.00156,1.336411
4.0196,1.332827
4.03763,1.326753
4.05565,1.324117
4.07367,1.329067
4.09169,1.315287
4.1097,1.312845
4.12771,1.307991
4.14571,1.295399
4.16371,1.278708
4.1817,1.263461
4.19969,1.248055
4.21767,1.228076
4.23565,1.220883
4.25363,1.195781
4.2716,1.171411
4.28956,1.154955
4.30752,1.13805
4.32548,1.109312
4.34343,1.089748
4.36138,1.067792
4.37932,1.050034
4.39726,1.036014
4.41519,1.010409
4.43311,0.994604
4.45104,0.969057
4.46895,0.960072
4.48687,0.938553
4.50477,0.931949
4.52268,0.922786
4.54058,0.912363
4.55847,0.899487
4.57636,0.892342
4.59424,0.876703
4.61212,0.871828
4.62999,0.874785
4.64786,0.859933
4.66572,0.855057
4.68358,0.855064
4.70143,0.847756
4.71928,0.847657
4.73712,0.850153
4.75495,0.841984
4.77279,0.855604
4.79061,0.852831
4.80843,0.849811
4.82625,0.83572
4.84406,0.8386
4.86186,0.839908
4.87966,0.836388
4.89746,0.843859
4.91525,0.835887
4.93303,0.825198
4.95081,0.819848
4.96858,0.826781
4.98635,0.824762
5.00411,0.816735
5.02187,0.825891
5.03962,0.812327
5.05737,0.80974
5.0751,0.803616
5.09284,0.815423
5.11057,0.807196
5.12829,0.801478
5.14601,0.787473
5.16372,0.796272
5.18143,0.798362
5.19913,0.795082
5.21682,0.780618
5.23451,0.7794
5.25219,0.780826
5.26987,0.77888
5.28754,0.77599
5.30521,0.789228
5.32287,0.777444
5.34052,0.786288
5.35817,0.805192
5.37582,0.791951
5.39345,0.799668
5.41108,0.789735
5.42871,0.803626
5.44633,0.798362
5.46394,0.818299
5.48155,0.817144
5.49915,0.832036
5.51674,0.837763
5.53433,0.848286
5.55191,0.849629
5.56949,0.866588
5.58706,0.867866
5.60463,0.905078
5.62218,0.891185
5.63974,0.900557
5.65728,0.910673
5.67482,0.917534
5.69236,0.947226
5.70988,0.954306
5.7274,0.94134
5.74492,0.954984
5.76243,0.974274
5.77993,0.974401
5.79743,0.991695
5.81492,0.991219
5.8324,0.997609
5.84987,1.009895
5.86735,1.039502
5.88481,1.019968
5.90227,1.039836
5.91972,1.043048
5.93716,1.040409
5.9546,1.061673
5.97203,1.060717
5.98946,1.075944
6.00687,1.079608
6.02429,1.083226
6.04169,1.090034
6.05909,1.09834
6.07648,1.108013
6.09387,1.110293
6.11124,1.106957
6.12862,1.119778
6.14598,1.116319
6.16334,1.118872
6.18069,1.126607
6.19804,1.140276
6.21537,1.132788
6.23271,1.135353
6.25003,1.151464
6.26735,1.127007
6.28466,1.135657
6.30196,1.139186
6.31926,1.135478
6.33655,1.13509
6.35383,1.132286
6.37111,1.133178
6.38838,1.126558
6.40564,1.125868
6.42289,1.119175
6.44014,1.117993
6.45738,1.098524
6.47461,1.117998
6.49184,1.119848
6.50906,1.110917
6.52627,1.104516
6.54348,1.08663
6.56068,1.084281
6.57787,1.097383
6.59505,1.082431
6.61223,1.07561
6.6294,1.071483
6.64656,1.062143
6.66371,1.050207
6.68086,1.055425
6.698,1.051111
6.71513,1.041812
6.73226,1.044014
6.74938,1.029919
6.76649,1.039252
6.78359,1.02563
6.80068,1.018768
6.81777,1.026226
6.83485,1.02806
6.85193,1.013379
6.86899,1.009979
6.88605,1.0051
6.9031,1.012674
6.92014,1.010678
6.93718,1.000048
6.95421,0.996847
6.97123,1.014678
6.98824,1.00952
7.00525,1.005742
7.02224,1.015272
7.03923,1.007018
7.05621,1.007979
7.07319,1.000191
7.09015,1.008824
7.10711,1.01071
7.12406,1.000359
7.14101,1.01318
7.15794,0.999149
7.17487,0.985779
7.19179,1.018358
7.2087,1.010584
7.2256,1.00173
7.2425,1.013505
7.25939,1.00932
7.27627,1.00962
7.29314,1.003903
7.31,1.025557
7.32686,1.016361
7.3437,1.028057
7.36054,1.019971
7.37738,1.014479
7.3942,1.022464
7.41101,1.029238
7.42782,1.015718
7.44462,1.025803
7.46141,1.019609
7.47819,1.022266
7.49497,1.027467
7.51174,1.024728
7.52849,1.023971
7.54524,1.032588
7.56198,1.031386
7.57872,1.036218
7.59544,1.040975
7.61216,1.035907
7.62887,1.032197
7.64557,1.037243
7.66226,1.041378
7.67894,1.040471
7.69562,1.041081
7.71228,1.052913
7.72894,1.034184
7.74559,1.042231
7.76223,1.038495
7.77886,1.041466
7.79549,1.038571
7.8121,1.040456
7.82871,1.052553
7.84531,1.039753
7.8619,1.039092
7.87848,1.033721
7.89505,1.038243
7.91161,1.031381
7.92817,1.018849
7.94472,1.019483
7.96125,1.029678
7.97778,1.025811
7.9943,1.009729
8.01081,1.028415
8.02732,1.019194
8.04381,1.022389
8.06029,1.008399
8.07677,1.005904
8.09324,1.004546
8.1097,1.010538
8.12614,0.997532
8.14258,1.002299
8.15902,0.986199
8.17544,0.976888
8.19185,0.992251
8.20826,0.988448
8.22465,0.976883
8.24104,0.963071
8.25742,0.977592
8.27379,0.955606
8.29015,0.944667
8.3065,0.957946
8.32284,0.945662
8.33917,0.952863
8.35549,0.9534
8.37181,0.928292
8.38811,0.930494
8.40441,0.925197
8.42069,0.93296
8.43697,0.919106
8.45324,0.912385
8.4695,0.917606
8.48574,0.909596
8.50198,0.911604
8.51821,0.896733
8.53444,0.895567
8.55065,0.897488
8.56685,0.884932
8.58304,0.888685
8.59923,0.889822
8.6154,0.891018
8.63157,0.893499
8.64772,0.876079
8.66387,0.867618
8.68,0.876798
8.69613,0.868289
8.71225,0.885579
8.72836,0.879054
8.74445,0.861347
8.76054,0.869087
8.77662,0.880409
8.79269,0.869751
8.80875,0.871505
8.8248,0.87926
8.84084,0.860872
8.85687,0.876186
8.87289,0.871616
8.8889,0.874991
8.9049,0.888009
8.9209,0.882854
8.93688,0.889909
8.95285,0.901826
8.96881,0.887677
8.98477,0.899424
9.00071,0.914653
9.01664,0.899772
9.03256,0.900339
9.04848,0.897171
9.06438,0.910494
9.08027,0.907087
9.09616,0.92209
9.11203,0.926104
9.12789,0.91819
9.14375,0.912256
9.15959,0.932434
9.17542,0.934487
9.19124,0.948018
9.20706,0.949015
9.22286,0.958392
9.23865,0.969314
9.25444,0.982282
9.27021,0.968621
9.28597,0.987225
9.30172,1.003712
9.31746,0.983014
9.3332,1.009199
9.34892,1.012886
9.36463,1.018516
9.38033,1.004747
9.39602,1.035771
9.4117,1.037853
9.42737,1.037137
9.44303,1.059643
9.45868,1.038145
9.47432,1.046155
9.48995,1.054375
9.50557,1.072634
9.52117,1.059821
9.53677,1.084575
9.55236,1.090881
9.56793,1.094093
9.5835,1.084283
9.59905,1.088636
9.6146,1.110318
9.63013,1.105896
9.64566,1.080065
9.66117,1.098768
9.67667,1.119885
9.69216,1.090374
9.70765,1.126163
9.72312,1.114837
9.73858,1.122096
9.75403,1.133797
9.76946,1.114078
9.78489,1.108364
9.80031,1.125414
9.81572,1.124853
9.83111,1.131767
9.8465,1.13652
9.86187,1.149108
9.87723,1.131659
9.89259,1.149102
9.90793,1.127085
9.92326,1.153772
9.93858,1.131227
9.95389,1.159093
9.96919,1.136076
9.98447,1.127682
9.99975,1.138308
10.015,1.116087
10.0303,1.123813
10.0455,1.109637
10.0607,1.12693
10.076,1.108753
10.0912,1.135524
10.1064,1.115462
10.1216,1.117204
10.1367,1.107568
10.1519,1.105964
10.1671,1.097279
10.1822,1.085161
10.1973,1.084455
10.2125,1.075227
10.2276,1.075352
10.2427,1.085252
10.2578,1.095903
10.2728,1.088015
10.2879,1.072624
10.3029,1.048937
10.318,1.062157
10.333,1.051268
10.348,1.05237
10.363,1.058221
10.378,1.048455
10.393,1.048606
10.408,1.044711
10.423,1.021807
10.4379,1.020197
10.4529,1.006059
10.4678,1.024773
10.4827,1.000755
10.4976,0.998743
10.5125,0.983995
10.5274,0.990215
10.5423,1.024263
10.5571,0.990517
10.572,0.990853
10.5868,0.997029
10.6016,0.988162
10.6164,0.975267
10.6312,0.975598
10.646,0.969237
10.6608,0.946756
10.6756,0.984971
10.6903,0.988625
10.7051,0.97389
10.7198,0.936866
10.7345,0.945496
10.7492,0.949402
10.7639,0.961478
10.7786,0.940319
10.7933,0.974374
10.8079,0.966534
10.8226,0.969378
10.8372,0.935358
10.8519,0.939367
10.8665,0.937455
10.8811,0.947258
10.8957,0.939899
10.9102,0.940425
10.9248,0.941249
10.9393,0.943462
10.9539,0.933948
10.9684,0.952289
10.9829,0.921162
10.9974,0.940441
11.0119,0.917339
11.0264,0.931786
11.0409,0.945181
11.0553,0.935388
11.0698,0.920222
11.0842,0.936886
11.0986,0.937574
11.113,0.926436
11.1274,0.915592
11.1418,0.931755
11.1562,0.909259
11.1706,0.920762
11.1849,0.925875
11.1992,0.948143
11.2136,0.931641
11.2279,0.940634
11.2422,0.941408
11.2565,0.945499
11.2707,0.915444
11.285,0.943178
11.2992,0.943128
11.3135,0.939828
11.3277,0.935547
11.3419,0.944311
11.3561,0.949418
11.3703,0.992896
11.3845,0.978167
11.3986,0.969938
11.4128,0.944037
11.4269,0.948381
11.441,0.947712
11.4551,0.974313
11.4692,0.960302
11.4833,0.967588
11.4974,0.957255
11.5115,0.963636
11.5255,0.965708
11.5396,0.96518
11.5536,0.935579
11.5676,0.948939
11.5816,1.011687
11.5956,0.944125
11.6095,0.969937
11.6235,0.990921
11.6374,0.982883
11.6514,0.942813
11.6653,0.953206
11.6792,0.958353
11.6931,0.954096
11.707,0.989917
11.7209,0.980633
11.7347,0.973384
11.7486,0.99138
11.7624,0.961317
11.7762,0.988896
11.79,0.973365
11.8038,0.952535
11.8176,1.005053
11.8314,0.997716
11.8451,1.012589
11.8588,0.945666
11.8726,0.995964
11.8863,0.969594
11.9,1.000803
11.9137,0.97
11.9274,0.979757
11.941,1.004152
11.9547,0.969039
11.9683,0.983481
11.9819,0.965953
11.9955,0.974094
12.0091,0.971845
12.0227,0.970975
12.0363,1.001296
12.0498,0.993752
12.0634,0.969989
12.0769,1.0115
12.0904,1.018681
12.1039,0.967948
12.1174,0.995707
12.1309,0.997028
12.1444,1.038955
12.1578,1.00395
12.1713,0.99317
12.1847,0.969005
12.1981,0.986145
12.2115,0.994651
12.2249,1.003617
12.2383,0.988138
12.2516,0.985103
12.265,1.029668
12.2783,0.982793
12.2916,0.985239
12.3049,0.991916
12.3182,1.022776
12.3315,0.979343
12.3447,0.974887
12.358,0.988636
12.3712,1.001543
12.3844,0.99988
12.3977,0.957688
12.4109,1.016025
12.424,0.971193
12.4372,0.980264
12.4504,0.976407
12.4635,0.976609
12.4766,1.002446
12.4897,0.973078
12.5028,1.001652
12.5159,1.031467
12.529,1.001801
12.5421,0.989883
12.5551,1.023761
12.5681,1.01902
12.5811,1.01959
12.5942,0.987929
12.6071,1.002823
12.6201,0.991961
12.6331,1.032294
12.646,1.023143
12.659,0.989259
12.6719,1.057341
12.6848,0.992924
12.6977,1.008009
12.7106,1.013328
12.7234,1.024595
12.7363,1.048815
12.7491,1.019864
12.7619,0.999023
12.7747,1.040744
12.7875,1.000745
12.8003,1.057325
12.8131,1.015248
12.8258,1.028215
12.8386,1.04669
12.8513,1.033409
12.864,0.997792
12.8767,1.012072
12.8894,1.023706
12.9021,1.040936
12.9147,1.046013
12.9274,1.040388
12.94,1.056343
12.9526,1.036472
12.9652,1.035653
12.9778,1.018596
12.9903,1.043114
13.0029,1.036698
13.0154,1.024867
13.028,1.04359
13.0405,1.06457
13.053,1.034019
13.0655,1.028588
13.0779,1.03001
13.0904,1.039366
13.1028,1.075845
13.1152,1.063533
13.1277,1.047439
13.14,1.062632
13.1524,1.056641
13.1648,1.054834
13.1772,1.071568
13.1895,1.056973
13.2018,1.054786
13.2141,1.024689
13.2264,1.088537
13.2387,1.095756
13.251,1.114384
13.2632,1.089604
13.2755,1.059882
13.2877,1.056718
13.2999,1.11804
13.3121,1.043653
13.3243,1.053902
13.3364,1.068369
13.3486,1.085597
13.3607,1.091851
13.3728,1.051898
13.3849,1.095058
13.397,1.073068
13.4091,1.057732
13.4212,1.063308
13.4332,1.054318
13.4453,1.084093
13.4573,1.080573
13.4693,1.070468
13.4813,1.061236
13.4932,1.093431
13.5052,1.054696
13.5171,1.060721
13.5291,1.113499
13.541,1.112936
13.5529,1.025959
13.5648,1.030707
13.5766,1.062836
13.5885,1.041272
13.6003,1.015531
13.6122,1.011427
13.624,1.032905
13.6358,1.057855
13.6475,1.063255
13.6593,1.07503
13.6711,1.06204
13.6828,1.007136
13.6945,1.02592
13.7062,1.006174
13.7179,1.046181
13.7296,1.028899
13.7412,1.006298
13.7529,0.987467
13.7645,1.026769
13.7761,1.002032
13.7877,1.000301
13.7993,0.994818
13.8109,1.017909
13.8224,0.984079
13.834,0.981286
13.8455,0.977975
13.857,0.991971
13.8685,0.984122
13.88,1.010051
13.8915,0.959138
13.9029,0.997934
13.9143,0.993046
13.9258,0.950362
13.9372,0.977652
13.9485,0.973219
13.9599,0.980908
13.9713,0.985724
13.9826,0.969409
13.9939,0.986392
14.0052,0.97426
14.0165,0.945662
14.0278,0.985196
14.0391,1.000974
14.0503,0.953115
14.0616,0.948552
14.0728,0.964356
14.084,1.018299
14.0952,0.966956
14.1063,0.991046
14.1175,1.00117
14.1286,0.974473
14.1398,0.993451
14.1509,0.988096
14.162,0.915766
14.1731,0.949989
14.1841,0.968934
14.1952,0.991908
14.2062,0.94073
14.2172,0.952028
14.2282,0.923026
14.2392,0.943098
14.2502,0.948856
14.2611,0.946354
14.2721,0.960665
14.283,0.965166
14.2939,0.9229
14.3048,0.963229
14.3157,0.876868
14.3265,0.935542
14.3374,0.921738
14.3482,0.911196
14.359,0.937079
14.3698,0.896983
14.3806,0.911365
14.3913,0.899581
14.4021,0.914304
14.4128,0.850635
14.4235,0.894548
14.4343,0.862567
14.4449,0.907139
14.4556,0.940264
14.4663,0.90633
14.4769,0.919725
14.4875,0.927308
14.4981,0.943314
14.5087,0.940452
14.5193,0.970441
14.5299,0.97686
14.5404,0.947485
14.5509,0.925464
14.5614,0.950092
14.5719,0.915054
14.5824,0.908701
14.5929,0.978864
14.6033,0.930081
14.6138,0.944533
14.6242,0.940753
14.6346,0.925058
14.645,0.969731
14.6553,0.942288
14.6657,0.877239
14.676,0.950832
14.6863,0.99852
14.6966,0.944032
14.7069,0.950732
14.7172,0.955383
14.7274,0.905679
14.7377,0.985747
14.7479,0.945958
14.7581,0.916325
14.7683,0.933818
14.7785,0.927879
14.7886,0.930235
14.7988,0.937212
14.8089,0.966185
14.819,0.917808
14.8291,0.928095
14.8392,0.955267
14.8492,0.927471
14.8593,0.943496
14.8693,0.946141
14.8793,0.931782
14.8893,0.969046
14.8993,0.978759
14.9093,1.000638
14.9192,0.954753
14.9291,0.930281
14.9391,0.954298
14.9489,0.957001
14.9588,0.990828
14.9687,0.98857
14.9785,0.928387
14.9884,0.978298
14.9982,1.022187
15.008,0.94561
15.0178,0.957002
15.0275,0.992106
15.0373,1.050015
15.047,1.00085
15.0567,0.979214
15.0664,0.997673
15.0761,1.017558
15.0858,0.964286
15.0954,1.027339
15.1051,0.995192
15.1147,0.984027
15.1243,1.042944
15.1339,1.043311
15.1434,0.985223
15.153,0.988117
15.1625,1.089841
15.172,1.04737
15.1815,1.025999
15.191,1.017798
15.2005,0.965492
15.2099,0.981043
15.2194,0.988027
15.2288,0.995647
15.2382,0.980332
15.2476,1.050898
15.2569,1.021273
15.2663,0.953443
15.2756,1.01173
15.2849,0.996049
15.2942,0.978373
15.3035,0.992755
15.3128,1.055593
15.322,0.982461
15.3313,1.040786
15.3405,1.006372
15.3497,1.029043
15.3589,0.986452
15.368,1.029357
15.3772,1.004964
15.3863,1.041045
15.3954,0.921342
15.4045,0.97024
15.4136,1.01447
15.4227,0.963247
15.4317,1.02591
15.4407,1.023252
15.4498,1.020408
15.4588,1.015353
15.4677,0.97375
15.4767,1.018067
15.4856,0.978819
15.4946,1.074033
15.5035,1.104261
15.5124,1.070782
15.5213,1.066236
15.5301,1.085144
15.539,1.102098
15.5478,1.058537
15.5566,1.089413
15.5654,1.122285
15.5742,1.08718
15.5829,1.099129
15.5917,1.087727
15.6004,1.087871
15.6091,1.135332
15.6178,1.044155
15.6265,1.049635
15.6351,1.052927
15.6438,1.041575
15.6524,1.065409
15.661,1.0729
15.6696,1.057728
15.6781,1.06915
15.6867,1.031946
15.6952,1.034569
15.7037,1.00256
15.7122,0.990198
15.7207,1.0098
15.7292,0.969051
15.7376,1.022542
15.7461,1.031559
15.7545,1.059388
15.7629,1.122817
15.7713,1.031619
15.7796,1.03766
15.788,1.045455
15.7963,1.036799
15.8046,1.00724
15.8129,0.990236
15.8212,1.089672
15.8294,1.104675
15.8377,1.043217
15.8459,1.050613
15.8541,1.13036
15.8623,1.069269
15.8705,1.116319
15.8786,1.030084
15.8868,1.075767
15.8949,1.052468
15.903,1.040464
15.9111,1.074486
15.9191,1.042834
15.9272,1.121796
15.9352,1.065494
15.9432,1.063763
15.9512,1.047015
15.9592,1.040131
15.9672,1.03703
15.9751,1.008554
15.9831,0.984578
15.991,1.067165
15.9989,1.057346
16.0067,1.007714
16.0146,0.997346
16.0224,1.064217
16.0303,0.983976
16.0381,1.08892
16.0459,1.033018
16.0536,1.030904
16.0614,1.129172
16.0691,1.008266
16.0768,0.997101
16.0845,0.994953
16.0922,1.02283
16.0999,1.024513
16.1075,1.071018
16.1151,1.087706
16.1228,1.232995
16.1303,1.080078
16.1379,1.047727
16.1455,1.04109
16.153,0.968263
16.1605,1.054224
16.168,1.00905
16.1755,1.042161
16.183,1.105571
16.1905,1.070488
16.1979,1.085144
16.2053,1.001819
16.2127,1.0115
16.2201,1.047544
16.2274,1.071079
16.2348,1.032001
16.2421,1.035447
16.2494,1.021413
16.2567,1.050428
16.264,1.055802
16.2712,1.025607
16.2785,1.014195
16.2857,1.014254
16.2929,1.059609
16.3001,0.979432
16.3073,1.088579
16.3144,0.960873
16.3215,1.026508
16.3286,1.059285
16.3357,0.966801
16.3428,0.960823
16.3499,1.014573
16.3569,1.015172
16.3639,1.012371
16.3709,0.940929
16.3779,0.995188
16.3849,0.939832
16.3919,0.952675
16.3988,0.948041
16.4057,0.974116
16.4126,0.991067
16.4195,0.907325
16.4263,1.000402
16.4332,0.937721
16.44,1.005682
16.4468,0.990651
16.4536,1.052832
16.4604,1.007218
16.4671,0.952944
16.4739,0.986982
16.4806,1.046265
16.4873,0.946372
16.494,0.993621
16.5006,0.972254
16.5073,0.980408
16.5139,0.919538
16.5205,0.94395
16.5271,0.939242
16.5337,1.001223
16.5402,0.967541
16.5468,0.975948
16.5533,0.952316
16.5598,0.963918
16.5663,0.970712
16.5727,0.946709
16.5792,0.938738
16.5856,0.979514
16.592,0.954719
16.5984,0.919928
16.6048,0.954579
16.6111,0.996581
16.6175,0.960871
16.6238,1.021693
16.6301,0.987012
16.6364,0.92106
16.6426,1.012831
16.6489,0.954671
16.6551,0.950997
16.6613,0.898542
16.6675,1.053871
16.6737,0.966251
16.6798,0.970048
16.6859,1.02647
16.6921,0.992566
16.6982,1.056504
16.7042,0.987275
16.7103,0.974752
16.7163,0.984577
16.7224,0.940701
16.7284,1.018873
16.7344,1.074207
16.7403,1.054193
16.7463,1.039795
16.7522,1.076292
16.7581,0.968958
16.764,0.931669
16.7699,1.063475
16.7758,0.979485
16.7816,1.02244
16.7874,0.943866
16.7932,1.014792
16.799,1.00589
16.8048,0.945068
16.8105,1.041757
16.8163,0.971206
16.822,0.952901
16.8277,0.995854
16.8334,0.902812
16.839,0.915556
16.8447,0.978431
16.8503,0.971064
16.8559,0.951333
16.8615,0.987931
16.867,0.991148
16.8726,0.965832
16.8781,0.964618
16.8836,0.968469
16.8891,1.003681
16.8946,0.984267
16.9,1.031647
16.9055,1.008985
16.9109,1.020997
16.9163,0.995649
16.9217,0.970155
16.927,0.91724
16.9324,0.983474
16.9377,0.946722
16.943,0.960467
16.9483,1.001885
16.9535,0.999596
16.9588,0.99938
16.964,1.025465
16.9692,0.998838
16.9744,0.968304
16.9796,1.038337
16.9848,1.026893
16.9899,1.026349
16.995,1.030891
17.0001,1.025637
17.0052,0.90166
17.0103,0.958179
17.0153,0.975441
17.0203,1.010803
17.0253,1.030633
17.0303,0.95503
17.0353,0.936239
17.0403,1.007293
17.0452,0.938834
17.0501,0.973519
17.055,1.000159
17.0599,0.95916
17.0647,0.958962
17.0696,0.908554
17.0744,0.973412
17.0792,0.988527
17.084,1.034846
17.0887,0.981149
17.0935,0.98973
17.0982,0.939226
17.1029,0.981927
17.1076,0.92233
17.1123,0.979645
17.1169,0.972202
17.1216,0.956922
17.1262,0.925624
17.1308,0.996816
17.1354,0.930066
17.1399,0.966183
17.1444,0.973203
17.149,0.965105
17.1535,0.929955
17.158,0.970126
17.1624,0.950076
17.1669,0.961984
17.1713,0.940582
17.1757,0.962952
17.1801,1.025732
17.1845,0.924741
17.1888,0.94399
17.1931,0.997622
17.1974,1.018868
17.2017,0.969371
17.206,1.026458
17.2103,1.032794
17.2145,0.988869
17.2187,1.007245
17.2229,0.977278
17.2271,0.99405
17.2313,0.940083
17.2354,0.965216
17.2395,0.944727
17.2436,0.966267
17.2477,0.97667
17.2518,0.968573
17.2558,0.95992
17.2599,0.997818
17.2639,0.953963
17.2679,1.028082
17.2719,0.972774
17.2758,0.935283
17.2797,0.917192
17.2837,0.954168
17.2876,0.911691
17.2914,0.906871
17.2953,0.928839
17.2991,0.948523
17.303,0.970021
17.3068,0.906639
17.3105,0.971998
17.3143,0.848085
17.3181,0.89193
17.3218,0.927674
17.3255,0.908788
17.3292,0.932303
17.3328,0.913603
17.3365,0.876691
17.3401,0.922614
17.3413,0.927425